STUDYID,RDOMAIN,USUBJID,IDVAR,IDVARVAL,QNAM,QLABEL,QVAL
Study Identifier,Related Domain Abbreviation,Unique Subject Identifier,Identifying Variable,Identifying Variable Value,Qualifier Variable Name,Qualifier Variable Label,Data Value
Char,Char,Char,Char,Char,Char,Char,Char
20,2,40,8,20,8,40,200
STUDY001,AE,STUDY001-001,AESEQ,1,AETRTEM,Treatment Emergent,Y