# Variable: LBSTNRLO
# Condition: LBORRES ^= continuous measurement
# Rule: LBSTNRLO = null
# verified
Authorities:
  - Organization: CDISC
    Standards:
      - Name: SDTMIG
        References:
          - Citations:
              - Cited Guidance: 'Lower end of reference range for continuous measurements for
                  LBSTRESC/LBSTRESN in standardized units. Should be
                  populated  only for continuous results. '
                Document: IG v3.4
                Item: Specification
                Section: 6.3.5.6
            Origin: SDTM and SDTMIG Conformance Rules
            Rule Identifier:
              Id: CG0182
              Version: '1'
            Version: '2.0'
        Version: '3.4'
      - Name: SDTMIG
        References:
          - Citations:
              - Cited Guidance: Lower end of reference range for continuous measurements in
                  original units. Should be populated only for continuous
                  results.
                Document: IG v3.2
                Item: Specification
                Section: '6.3'
            Origin: SDTM and SDTMIG Conformance Rules
            Rule Identifier:
              Id: CG0182
              Version: '1'
            Version: '2.0'
        Version: '3.2'
      - Name: SDTMIG
        References:
          - Citations:
              - Cited Guidance: Lower end of reference range for continuous measurements in
                  original units. Should be populated only for continuous
                  results.
                Document: IG v3.3
                Item: Specification
                Section: 6.3.6
            Origin: SDTM and SDTMIG Conformance Rules
            Rule Identifier:
              Id: CG0182
              Version: '1'
            Version: '2.0'
        Version: '3.3'
      - Name: TIG
        References:
          - Citations:
              - Cited Guidance: Lower end of reference range for continuous measurements for
                  LBSTRESC/LBSTRESN in standardized units. Should be populated
                  only for continuous results.
                Document: TIG 1.0
                Item: Specification-LBSTNRLO
                Section: 2.8.10.14
            Origin: TIG Conformance Rules
            Rule Identifier:
              Id: TIG0411
              Version: '1'
            Version: '1.0'
        Substandard: SDTM
        Version: '1.0'

Check:
  all:
    - name: LBORRES
      operator: not_matches_regex
      value: ^(<|>|< |> )?(-?((\d+(\.\d+)?)|(\.\d+)))$
    - name: LBSTNRLO
      operator: non_empty
    - name: LBORRES
      operator: non_empty
Core:
  Id: CORE-000298
  Status: Published
  Version: '1'
Description: Raise an error when LBORRES is not a continuous measurement but LBSTNRLO is populated.
Executability: Fully Executable
Outcome:
  Message: LBSTNRLO must not be populated when LBORRES is not a continuous measurement.
  Output Variables:
    - LBTESTCD
    - LBORRES
    - LBSTNRLO
Rule Type: Record Data
Scope:
  Classes:
    Include:
      - FINDINGS
  Domains:
    Include:
      - LB
  Use Case: INDH
Sensitivity: Record
