STUDYID,USUBJID,PARAMCD,AVAL,TRTP,TRT01A
Study Identifier,Unique Subject Identifier,Parameter Code,Analysis Value,Planned Treatment,Actual Treatment 01
Char,Char,Char,Num,Char,Char
20,40,8,8,20,20
STUDY001,STUDY001-001,PULSE,70,A,A
