STUDYID,USUBJID,PARAMCD,PARAM,AVAL,CRIT1,TRTP,TRTPG1
Study Identifier,Unique Subject Identifier,Parameter Code,Parameter,Analysis Value,Criterion 1,Planned Treatment,Treatment Group 1
Char,Char,Char,Char,Num,Char,Char,Char
20,20,8,40,8,8,20,20
STUDY-01,01-001,P1,PARAM1,1,A,TRTA,G1
STUDY-01,01-002,P1,PARAM1,2,A,TRTA,G1
STUDY-01,01-003,P2,PARAM2,3,B,TRTB,G2
