STUDYID,USUBJID,SUBJID,TRT01P,TR01PG1,TRT01A,TR01AG1
Study Identifier,Unique Subject Identifier,Subject Identifier,Planned Treatment Period 01,Treatment Group Period 01 Category 1,Actual Treatment Period 01,Treatment Group Actual 01 Category 1
Char,Char,Char,Char,Char,Char,Char
20,20,20,20,20,20,20
STUDY-01,01-001,S01,A,PGA,B,AGA
STUDY-01,01-002,S02,A,PGA,B,AGA
STUDY-01,01-003,S03,C,PGC,D,AGD
