{3 items
"datasets":[1 item
0:{5 items
"filename":"lb.xpt"
"label":"Laboratory Test Results"
"domain":"LB"
"variables":[14 items
0:{4 items
"name":"STUDYID"
"label":"Study Identifier"
"type":"Char"
"length":12
}
1:{4 items
"name":"DOMAIN"
"label":"Domain Abbreviation"
"type":"Char"
"length":2
}
2:{4 items
"name":"USUBJID"
"label":"Unique Subject Identifier"
"type":"Char"
"length":8
}
3:{4 items
"name":"LBSEQ"
"label":"Sequence Number"
"type":"Num"
"length":8
}
4:{4 items
"name":"LBTESTCD"
"label":"Lab Test or Examination Short Name"
"type":"Char"
"length":8
}
5:{4 items
"name":"LBTEST"
"label":"Lab Test or Examination Name"
"type":"Char"
"length":50
}
6:{4 items
"name":"LBCAT"
"label":"Category for Lab Test"
"type":"Char"
"length":50
}
7:{4 items
"name":"LBORRES"
"label":"Result or Finding in Original Units"
"type":"Char"
"length":25
}
8:{4 items
"name":"LBORRESU"
"label":"Original Units"
"type":"Char"
"length":25
}
9:{4 items
"name":"LBSPEC"
"label":"Specimen Type"
"type":"Char"
"length":25
}
10:{4 items
"name":"LBDTC"
"label":"Date/Time of Specimen Collection"
"type":"Char"
"length":19
}
11:{4 items
"name":"LBENDTC"
"label":"End Date/Time of Specimen Collection"
"type":"Char"
"length":19
}
12:{4 items
"name":"LBDY"
"label":"Study Day of Specimen Collection"
"type":"Num"
"length":8
}
13:{4 items
"name":"LBENDY"
"label":"Study Day of End of Observation"
"type":"Num"
"length":8
}
]
"records":{14 items
"STUDYID":[6 items
0:"CDISCPILOT01"
1:"CDISCPILOT01"
2:"CDISCPILOT01"
3:"CDISCPILOT01"
4:"CDISCPILOT01"
5:"CDISCPILOT01"
]
"DOMAIN":[6 items
0:"LB"
1:"LB"
2:"LB"
3:"LB"
4:"LB"
5:"LB"
]
"USUBJID":[6 items
0:"CDISC001"
1:"CDISC001"
2:"CDISC002"
3:"CDISC002"
4:"CDISC003"
5:"CDISC003"
]
"LBSEQ":[6 items
0:1
1:2
2:1
3:2
4:1
5:2
]
"LBTESTCD":[6 items
0:"MCPROEXR"
1:"MSPIKEQ1"
2:"MCPROEXR"
3:"MSPIKEQ1"
4:"MSPIKEQ1"
5:"MCPROEXR"
]
"LBTEST":[6 items
0:"Monoclonal Protein Excretion Rate"
1:"Monoclonal Protein Spike Quantity 1"
2:"Monoclonal Protein Excretion Rate"
3:"Monoclonal Protein Spike Quantity 1"
4:"Monoclonal Protein Spike Quantity 1"
5:"Monoclonal Protein Excretion Rate"
]
"LBCAT":[6 items
0:"URINALYSIS"
1:"URINALYSIS"
2:"URINALYSIS"
3:"URINALYSIS"
4:"URINALYSIS"
5:"URINALYSIS"
]
"LBORRES":[6 items
0:"BELOW QUANTIFIABLE LIMITS"
1:"0"
2:"BELOW QUANTIFIABLE LIMITS"
3:"0"
4:"0"
5:"BELOW QUANTIFIABLE LIMITS"
]
"LBORRESU":[6 items
0:"g/day"
1:"g/day"
2:"g/day"
3:"g/day"
4:"g/day"
5:"g/day"
]
"LBSPEC":[6 items
0:"URINE"
1:"URINE"
2:"URINE"
3:"URINE"
4:"URINE"
5:"URINE"
]
"LBDTC":[6 items
0:"2018-01-29T07:00:00"
1:"2018-02-19"
2:"2018-01-29"
3:"2018-02-19T06:00"
4:"2018-02"
5:"2018-01"
]
"LBENDTC":[6 items
0:"2018-01-29T07:00:00"
1:"2018-02-19T06:00:00 "
2:"2018-01-29T07:00:00"
3:"2018-02-20T06:00:30 "
4:"2018-02-20"
5:"2018---12"
]
"LBDY":[6 items
0:-24
1:-1
2:-23
3:-1
4:NULL
5:-23
]
"LBENDY":[6 items
0:-23
1:1
2:-22
3:1
4:1
5:NULL
]
}
}
]
"standard":{2 items
"product":"sdtmig"
"version":"3-4"
}
"codelists":[]0 items
}