STUDYID,USUBJID,AESEQ,AETERM,AESEV,AESEVN,ASEV,ASEVN,SEVGR1,SEVGR1N,AEREL,AERELN,AREL,ARELN,RELGR1,RELGR1N,AETOXGR,AETOXGRN,ATOXGR,ATOXGRN,TOXGGR1,TOXGGR1N,SMQ01SC,SMQ01SCN
Studyid,Usubjid,Aeseq,Aeterm,Aesev,Aesevn,Asev,Asevn,Sevgr1,Sevgr1N,Aerel,Aereln,Arel,Areln,Relgr1,Relgr1N,Aetoxgr,Aetoxgrn,Atoxgr,Atoxgrn,Toxggr1,Toxggr1N,Smq01Sc,Smq01Scn
Char,Char,Char,Char,Char,Num,Char,Num,Char,Num,Char,Num,Char,Num,Char,Num,Char,Num,Char,Num,Char,Num,Char,Num
40,40,40,40,40,8,40,8,40,8,40,8,40,8,40,8,40,8,40,8,40,8,40,8
STUDY001,STUDY001-001,1,HEADACHE,A,10,A,10,A,10,A,10,A,10,A,10,A,10,A,10,A,10,A,10
STUDY001,STUDY001-002,2,HEADACHE,A,10,A,10,A,10,A,10,A,10,A,10,A,10,A,10,A,10,A,10
STUDY001,STUDY001-003,3,HEADACHE,B,20,B,20,B,20,B,20,B,20,B,20,B,20,B,20,B,20,B,20
STUDY001,STUDY001-004,4,HEADACHE,,10,,10,,10,,10,,10,,10,,10,,10,,10,,10
STUDY001,STUDY001-005,5,HEADACHE,A,,A,,A,,A,,A,,A,,A,,A,,A,,A,
