STUDYID,USUBJID,REGION1,REGION1N,DTHCAUS,DTHCAUSN,STRATAR,STRATARN,STRAT1R,STRAT1RN,STRATAV,STRATAVN,STRAT1V,STRAT1VN,TRCMPG1,TRCMPG1N,TRT01PN,TRT01P,TRTSEQP,TRTSEQPN,TRTSEQA,TRTSEQAN,TR01PG1,TR01PG1N,TR01AG1,TR01AG1N,TRT01AN,TRT01A,TRT02AN,TRT02A
Studyid,Usubjid,Region1,Region1N,Dthcaus,Dthcausn,Stratar,Stratarn,Strat1R,Strat1Rn,Stratav,Stratavn,Strat1V,Strat1Vn,Trcmpg1,Trcmpg1N,Trt01Pn,Trt01P,Trtseqp,Trtseqpn,Trtseqa,Trtseqan,Tr01Pg1,Tr01Pg1N,Tr01Ag1,Tr01Ag1N,Trt01An,Trt01A,Trt02An,Trt02A
Char,Char,Char,Num,Char,Num,Char,Num,Char,Num,Char,Num,Char,Num,Char,Num,Num,Char,Char,Num,Char,Num,Char,Num,Char,Num,Num,Char,Num,Char
40,40,40,8,40,8,40,8,40,8,40,8,40,8,40,8,8,40,40,8,40,8,40,8,40,8,8,40,8,40
STUDY001,STUDY001-001,A,10,A,10,A,10,A,10,A,10,A,10,A,10,1,X,A,10,A,10,A,10,A,10,1,X,1,X
STUDY001,STUDY001-002,A,10,A,10,A,10,A,10,A,10,A,10,A,10,1,X,A,10,A,10,A,10,A,10,1,X,1,X
STUDY001,STUDY001-003,B,20,B,20,B,20,B,20,B,20,B,20,B,20,2,Y,B,20,B,20,B,20,B,20,2,Y,2,Y
STUDY001,STUDY001-004,,10,,10,,10,,10,,10,,10,,10,1,X,,10,,10,,10,,10,1,X,1,X
STUDY001,STUDY001-005,A,,A,,A,,A,,A,,A,,A,,,,A,,A,,A,,A,,,,,