STUDYID,USUBJID,PARAMCD,AVAL,ABLFN,ABLFL,ANL01FN,ANL01FL,TRTPN,TRTP,TRTAN,TRTA,APERIODC,APERIOD,PARCAT1,PARCAT1N,PARAM,TRTPG1,TRTPG1N,TRTAG1,TRTAG1N,TRTAG3,TRTAG3N
Studyid,Usubjid,Paramcd,Aval,Ablfn,Ablfl,Anl01Fn,Anl01Fl,Trtpn,Trtp,Trtan,Trta,Aperiodc,Aperiod,Parcat1,Parcat1N,Param,Trtpg1,Trtpg1N,Trtag1,Trtag1N,Trtag3,Trtag3N
Char,Char,Char,Char,Num,Char,Num,Char,Num,Char,Num,Char,Char,Num,Char,Num,Char,Char,Num,Char,Num,Char,Num
40,40,40,40,8,40,8,40,8,40,8,40,40,8,40,8,40,40,8,40,8,40,8
STUDY001,STUDY001-001,X,1,1,X,1,X,1,X,1,X,A,10,A,10,A,A,10,A,10,C,10
STUDY001,STUDY001-002,X,2,1,X,1,X,1,X,1,X,A,10,A,10,A,A,10,A,10,C,10
STUDY001,STUDY001-003,Y,3,2,Y,2,Y,2,Y,2,Y,B,20,B,20,B,B,20,B,20,D,20
STUDY001,STUDY001-004,X,4,1,X,1,X,1,X,1,X,,10,,10,,,10,,10,,10
STUDY001,STUDY001-005,,5,,,,,,,,,A,,A,,A,A,,A,,C,
