STUDYID,STUDYIDN,USUBJID,USUBJIDN,SUBJID,SUBJIDN,AFRLT,EVID,DV,MDV,AMT,SEX,SEXN,RACE,RACEN,PARAM,PARAMCD,AVAL,AVALC,PROJID,PROJIDN,SITEID,SITEIDN,COUNTRY,COUNTRYL,COUNTRYN,COHORT,COHORTC,SUBJTYP,SUBJTYPC,BLQFL,BLQFN,ALQFL,ALQFN,FORM,FORMN,ROUTE,ROUTEN,ACYCLE,ACYCLEC,FLGREAS,FLGREASC,DVID,DVIDN,ARELTM,ARELTMU,ATOXGR,BTOXGR,BTOXGRN,ANRIND,BNRIND,ATOXGRL,ATOXGRLN,ATOXGRH,ATOXGRHN,BTOXGRL,BTOXGRLN,BTOXGRH,BTOXGRHN,ABLFL,ABLFN
Study Identifier,Study Identifier (N),Unique Subject Identifier,Unique Subject Identifier (N),Subject Identifier for the Study,Subject Identifier for the Study (N),Actual Rel Time from First Dose,Event ID,Dependent Variable Result,Missing Dependent Variable Result,Actual Amount of Dose Received (unit),Sex,Sex (N),Race,Race (N),Parameter,Parameter Code,Analysis Value,Analysis Value (C),Project Identifier,Project Identifier (N),Study Site Identifier,Study Site Identifier (N),Country,Country Full Name,Country (N),Cohort Subject Enrolled Into,Cohort Subject Enrolled into (C),Subject Type,Subject Type (C),Below Lower Limit of Quant Flag,Below Lower Limit of Quant Flag (N),Above the Upper Limit of Quant Flag,Above the Upper Limit of Quant Flag (N),Drug Formulation,Drug Formulation (N),Route of Administration,Route of Administration (N),Analysis Cycle,Analysis Cycle (C),Identification of Data Issue Reason,Identification of Data Issue Reason (C),Dependent Variable Name,Dependent Variable Name (N),Analysis Relative Time,Analysis Relative Time Unit,Analysis Toxicity Grade,Baseline Toxicity Grade,Baseline Toxicity Grade (N),Analysis Reference Range Indicator,Baseline Reference Range Indicator,Analysis Toxicity Grade Low,Analysis Toxicity Grade Low (N),Analysis Toxicity Grade High,Analysis Toxicity Grade High (N),Baseline Toxicity Grade Low,Baseline Toxicity Grade Low (N),Baseline Toxicity Grade High,Baseline Toxicity Grade High (N),Baseline Record Flag,Baseline Record Flag (N)
Char,Num,Char,Num,Char,Num,Num,Num,Num,Num,Num,Char,Num,Char,Num,Char,Char,Num,Char,Char,Num,Char,Num,Char,Char,Num,Num,Char,Num,Char,Char,Num,Char,Num,Char,Num,Char,Num,Num,Char,Num,Char,Char,Num,Num,Char,Char,Char,Num,Char,Char,Char,Num,Char,Num,Char,Num,Char,Num,Char,Num
8,8,17,16,8,16,16,8,8,8,8,1,1,50,16,32,8,8,8,16,8,2,8,32,64,8,8,8,8,8,1,1,1,1,8,8,12,8,8,8,8,8,4,8,16,8,16,16,16,16,16,16,16,16,16,16,16,16,16,1,1
STUDY001,10001,STUDY001-SUBJ0001,10000001,SUBJ0001,10000001,234,102442,100,404,10,F,1,BLACK OR AFRICAN AMERICAN,205432,PARACETAMOL,AY023823,0.432241,AVALUEC,PROJ-04-05574,10005574,13,1000013,Belgium,Belgium,1022,1001,AF-01001,205431,tall,N,0,N,0,serious,20543,INTRAVENOUS,1043,1002,A-001002,1654,yes,x,1001,15005,sec,much,little,10.512,high,low,low,0.0999,higher,9.999,lower,0.00099,very high,999.99,y,1
STUDY001,10001,STUDY001-SUBJ0002,10000002,SUBJ0002,10000002,244,102443,100,404,10,M,0,AMERICAN INDIAN OR ALASKA NATIVE,346953,ASPIRIN,AZ023325,0.432241,AVALUEC,PROJ-04-05574,10005574,43,1000043,United Kingdom,United Kingdom of Great Britain and Northern Ireland,1201,1002,AF-01002,205431,tan,N,0,N,0,fun,20544,SUPPOSITORY,1042,1002,A-001002,1654,why,y,1011,15006,sec,much,little,10.512,high,low,low,0.0999,higher,9.999,lower,0.00099,very high,999.99,y,1
STUDY001,10001,STUDY001-SUBJ0003,10000003,SUBJ0003,10000003,254,102444,100,404,10,F,1,ASIAN,504032,IBUPROFEN,AW209534,0.432241,AVALUEC,PROJ-04-05574,10005574,12,1000012,Italy,Italy,1101,1003,AF-01003,205431,young,N,0,N,0,strong,20545,ORAL,1032,1002,A-001002,1654,not,z,1111,15007,sec,much,little,10.512,high,low,low,0.0999,higher,9.999,lower,0.00099,very high,999.99,y,1
