STUDYID,USUBJID,COMPLFL,FASFL,ITTFL,PPROTFL,SAFFL,RANDFL,ENRLFL,COMPLFN,FASFN,ITTFN,PPROTFN,SAFFN,RANDFN,ENRLFN
Study Identifier,Unique Subject Identifier,Completers Population Flag,Full Analysis Set Population Flag,Intent-To-Treat Population Flag,Per-Protocol Population Flag,Safety Population Flag,Randomized Population Flag,Enrolled Population Flag,Completers Population Flag (N),Full Analysis Set Population Flag (N),Intent-To-Treat Population Flag (N),Per-Protocol Population Flag (N),Safety Population Flag (N),Randomized Population Flag (N),Enrolled Population Flag (N)
Char,Char,Char,Char,Char,Char,Char,Char,Char,Num,Num,Num,Num,Num,Num,Num
12,8,1,1,1,1,1,1,1,8,8,8,8,8,8,8
CDISCPILOT01,CDISC001,Y,Y,Y,N,Y,Y,Y,0,1,1,0,1,1,1