# variable: --DTC, --STRF and --STRTPT
# condition: --ENDTC, --ENRF or --ENRTPT ^= null
# rule: --DTC, --STRF or --STRTPT ^= null
# verified
Authorities:
  - Organization: FDA
    Standards:
      - Name: SDTMIG
        References:
          - Citations:
              - Cited Guidance: When end timepoint is provided, then a related start timepoint should also be provided.
                Document: FDA
                Section: FDAB043
            Origin: FDA Business Rules
            Rule Identifier:
              Id: FB4307
              Version: '1'
            Version: '1.5'
        Version: '3.2'
      - Name: SDTMIG
        References:
          - Citations:
              - Cited Guidance: When end timepoint is provided, then a related start timepoint should also be provided.
                Document: FDA
                Section: FDAB043
            Origin: FDA Business Rules
            Rule Identifier:
              Id: FB4307
              Version: '1'
            Version: '1.5'
        Version: '3.3'
      - Name: SDTMIG
        References:
          - Citations:
              - Cited Guidance: When end timepoint is provided, then a related start timepoint should also be provided.
                Document: FDA
                Section: FDAB043
            Origin: FDA Business Rules
            Rule Identifier:
              Id: FB4307
              Version: '1'
            Version: '1.5'
        Version: '3.4'
      - Name: SENDIG
        References:
          - Citations:
              - Cited Guidance: When end timepoint is provided, then a related start timepoint should also be provided.
                Document: FDA
                Section: FDAB043
            Origin: FDA Business Rules
            Rule Identifier:
              Id: FB4307
              Version: '1'
            Version: '1.5'
        Version: '3.0'
      - Name: SENDIG
        References:
          - Citations:
              - Cited Guidance: When end timepoint is provided, then a related start timepoint should also be provided.
                Document: FDA
                Section: FDAB043
            Origin: FDA Business Rules
            Rule Identifier:
              Id: FB4307
              Version: '1'
            Version: '1.5'
        Version: '3.1'
      - Name: SENDIG
        References:
          - Citations:
              - Cited Guidance: When end timepoint is provided, then a related start timepoint should also be provided.
                Document: FDA
                Section: FDAB043
            Origin: FDA Business Rules
            Rule Identifier:
              Id: FB4307
              Version: '1'
            Version: '1.5'
        Version: '3.1.1'
      - Name: SENDIG-GENETOX
        References:
          - Citations:
              - Cited Guidance: When end timepoint is provided, then a related start timepoint should also be provided.
                Document: FDA
                Section: FDAB043
            Origin: FDA Business Rules
            Rule Identifier:
              Id: FB4307
              Version: '1'
            Version: '1.5'
        Version: '1.0'
      - Name: SENDIG-DART
        References:
          - Citations:
              - Cited Guidance: When end timepoint is provided, then a related start timepoint should also be provided.
                Document: FDA
                Section: FDAB043
            Origin: FDA Business Rules
            Rule Identifier:
              Id: FB4307
              Version: '1'
            Version: '1.5'
        Version: '1.1'
      - Name: SENDIG-DART
        References:
          - Citations:
              - Cited Guidance: When end timepoint is provided, then a related start timepoint should also be provided.
                Document: FDA
                Section: FDAB043
            Origin: FDA Business Rules
            Rule Identifier:
              Id: FB4307
              Version: '1'
            Version: '1.5'
        Version: '1.2'
      - Name: SENDIG-AR
        References:
          - Citations:
              - Cited Guidance: When end timepoint is provided, then a related start timepoint should also be provided.
                Document: FDA
                Section: FDAB043
            Origin: FDA Business Rules
            Rule Identifier:
              Id: FB4307
              Version: '1'
            Version: '1.5'
        Version: '1.0'
Check:
  all:
    - any:
        - name: --ENDTC
          operator: non_empty
        - name: --ENRF
          operator: non_empty
        - name: --ENRTPT
          operator: non_empty
    - all:
        - any:
            - name: --DTC
              operator: not_exists
            - name: --DTC
              operator: empty
        - any:
            - name: --STRF
              operator: not_exists
            - name: --STRF
              operator: empty
        - any:
            - name: --STRTPT
              operator: not_exists
            - name: --STRTPT
              operator: empty
Core:
  Id: CORE-002104
  Status: Published
  Version: '1'
Description: Raise an error when end timepoint (--ENDTC, --ENRF or --ENRTPT) is populated but
  related start timepoint (--DTC, --STRF or --STRTPT) is not populated.
Executability: Fully Executable
Outcome:
  Message: End timepoint is populated but start timepoint is missing.
  Output Variables:
    - --DTC
    - --STRF
    - --STRTPT
    - --ENDTC
    - --ENRF
    - --ENRTPT
Rule Type: Record Data
Scope:
  Classes:
    Include:
      - FINDINGS
  Domains:
    Include:
      - ALL
Sensitivity: Record
