{
    "rule": {
        "Authorities": [
            {
                "Organization": "FDA",
                "Standards": [
                    {
                        "Name": "SDTMIG",
                        "References": [
                            {
                                "Citations": [
                                    {
                                        "Document": "FDA",
                                        "Section": "FDAB009",
                                        "Cited_Guidance": "All paired variables should have a one-to-one relationship. Examples include short name and name of test; parameter name and parameter code or number; variable name and variable label, etc."
                                    }
                                ],
                                "Origin": "FDA Business Rules",
                                "Version": "1.5",
                                "Rule_Identifier": {
                                    "Id": "FB0902",
                                    "Version": "1"
                                }
                            }
                        ],
                        "Version": "3.2"
                    },
                    {
                        "Name": "SDTMIG",
                        "References": [
                            {
                                "Citations": [
                                    {
                                        "Document": "FDA",
                                        "Section": "FDAB009",
                                        "Cited_Guidance": "All paired variables should have a one-to-one relationship. Examples include short name and name of test; parameter name and parameter code or number; variable name and variable label, etc."
                                    }
                                ],
                                "Origin": "FDA Business Rules",
                                "Version": "1.5",
                                "Rule_Identifier": {
                                    "Id": "FB0902",
                                    "Version": "1"
                                }
                            }
                        ],
                        "Version": "3.3"
                    },
                    {
                        "Name": "SDTMIG",
                        "References": [
                            {
                                "Citations": [
                                    {
                                        "Document": "FDA",
                                        "Section": "FDAB009",
                                        "Cited_Guidance": "All paired variables should have a one-to-one relationship. Examples include short name and name of test; parameter name and parameter code or number; variable name and variable label, etc."
                                    }
                                ],
                                "Origin": "FDA Business Rules",
                                "Version": "1.5",
                                "Rule_Identifier": {
                                    "Id": "FB0902",
                                    "Version": "1"
                                }
                            }
                        ],
                        "Version": "3.4"
                    },
                    {
                        "Name": "SENDIG",
                        "References": [
                            {
                                "Citations": [
                                    {
                                        "Document": "FDA",
                                        "Section": "FDAB009",
                                        "Cited_Guidance": "All paired variables should have a one-to-one relationship. Examples include short name and name of test; parameter name and parameter code or number; variable name and variable label, etc."
                                    }
                                ],
                                "Origin": "FDA Business Rules",
                                "Version": "1.5",
                                "Rule_Identifier": {
                                    "Id": "FB0902",
                                    "Version": "1"
                                }
                            }
                        ],
                        "Version": "3.0"
                    },
                    {
                        "Name": "SENDIG",
                        "References": [
                            {
                                "Citations": [
                                    {
                                        "Document": "FDA",
                                        "Section": "FDAB009",
                                        "Cited_Guidance": "All paired variables should have a one-to-one relationship. Examples include short name and name of test; parameter name and parameter code or number; variable name and variable label, etc."
                                    }
                                ],
                                "Origin": "FDA Business Rules",
                                "Version": "1.5",
                                "Rule_Identifier": {
                                    "Id": "FB0902",
                                    "Version": "1"
                                }
                            }
                        ],
                        "Version": "3.1"
                    },
                    {
                        "Name": "SENDIG",
                        "References": [
                            {
                                "Citations": [
                                    {
                                        "Document": "FDA",
                                        "Section": "FDAB009",
                                        "Cited_Guidance": "All paired variables should have a one-to-one relationship. Examples include short name and name of test; parameter name and parameter code or number; variable name and variable label, etc."
                                    }
                                ],
                                "Origin": "FDA Business Rules",
                                "Version": "1.5",
                                "Rule_Identifier": {
                                    "Id": "FB0902",
                                    "Version": "1"
                                }
                            }
                        ],
                        "Version": "3.1.1"
                    },
                    {
                        "Name": "SENDIG-GENETOX",
                        "References": [
                            {
                                "Citations": [
                                    {
                                        "Document": "FDA",
                                        "Section": "FDAB009",
                                        "Cited_Guidance": "All paired variables should have a one-to-one relationship. Examples include short name and name of test; parameter name and parameter code or number; variable name and variable label, etc."
                                    }
                                ],
                                "Origin": "FDA Business Rules",
                                "Version": "1.5",
                                "Rule_Identifier": {
                                    "Id": "FB0902",
                                    "Version": "1"
                                }
                            }
                        ],
                        "Version": "1.0"
                    },
                    {
                        "Name": "SENDIG-DART",
                        "References": [
                            {
                                "Citations": [
                                    {
                                        "Document": "FDA",
                                        "Section": "FDAB009",
                                        "Cited_Guidance": "All paired variables should have a one-to-one relationship. Examples include short name and name of test; parameter name and parameter code or number; variable name and variable label, etc."
                                    }
                                ],
                                "Origin": "FDA Business Rules",
                                "Version": "1.5",
                                "Rule_Identifier": {
                                    "Id": "FB0902",
                                    "Version": "1"
                                }
                            }
                        ],
                        "Version": "1.1"
                    },
                    {
                        "Name": "SENDIG-DART",
                        "References": [
                            {
                                "Citations": [
                                    {
                                        "Document": "FDA",
                                        "Section": "FDAB009",
                                        "Cited_Guidance": "All paired variables should have a one-to-one relationship. Examples include short name and name of test; parameter name and parameter code or number; variable name and variable label, etc."
                                    }
                                ],
                                "Origin": "FDA Business Rules",
                                "Version": "1.5",
                                "Rule_Identifier": {
                                    "Id": "FB0902",
                                    "Version": "1"
                                }
                            }
                        ],
                        "Version": "1.2"
                    },
                    {
                        "Name": "SENDIG-AR",
                        "References": [
                            {
                                "Citations": [
                                    {
                                        "Document": "FDA",
                                        "Section": "FDAB009",
                                        "Cited_Guidance": "All paired variables should have a one-to-one relationship. Examples include short name and name of test; parameter name and parameter code or number; variable name and variable label, etc."
                                    }
                                ],
                                "Origin": "FDA Business Rules",
                                "Version": "1.5",
                                "Rule_Identifier": {
                                    "Id": "FB0902",
                                    "Version": "1"
                                }
                            }
                        ],
                        "Version": "1.0"
                    }
                ]
            }
        ],
        "Check": {
            "all": [
                {
                    "name": "ARM",
                    "operator": "is_not_unique_relationship",
                    "value": "ARMCD"
                }
            ]
        },
        "Core": {
            "Id": "CORE-000318",
            "Status": "Draft",
            "Version": "1"
        },
        "Description": "ARMCD and ARM should have a one-to-one relationship",
        "Executability": "Fully Executable",
        "Outcome": {
            "Message": "ARMCD and ARM do not have a one-to-one relationship",
            "Output_Variables": [
                "ARMCD",
                "ARM"
            ]
        },
        "Scope": {
            "Classes": {
                "Include": [
                    "TRIAL DESIGN",
                    "SPECIAL PURPOSE"
                ]
            },
            "Domains": {
                "Include": [
                    "TA",
                    "TV",
                    "DM"
                ]
            }
        },
        "Sensitivity": "Record",
        "Rule_Type": "Record Data"
    },
    "datasets": [
        {
            "filename": "dm.xpt",
            "label": "Demographics",
            "domain": "DM",
            "variables": [
                {
                    "name": "STUDYID",
                    "label": "Study Identifier",
                    "type": "Char",
                    "length": 12
                },
                {
                    "name": "DOMAIN",
                    "label": "Domain Abbreviation",
                    "type": "Char",
                    "length": 2
                },
                {
                    "name": "USUBJID",
                    "label": "Unique Subject Identifier",
                    "type": "Char",
                    "length": 8
                },
                {
                    "name": "SUBJID",
                    "label": "Subject Identifier for the Study",
                    "type": "Char",
                    "length": 4
                },
                {
                    "name": "RFSTDTC",
                    "label": "Subject Reference Start Date/Time",
                    "type": "Char",
                    "length": 10
                },
                {
                    "name": "RFENDTC",
                    "label": "Subject Reference End Date/Time",
                    "type": "Char",
                    "length": 10
                },
                {
                    "name": "RFXSTDTC",
                    "label": "Date/Time of First Study Treatment",
                    "type": "Char",
                    "length": 10
                },
                {
                    "name": "RFXENDTC",
                    "label": "Date/Time of Last Study Treatment",
                    "type": "Char",
                    "length": 10
                },
                {
                    "name": "RFICDTC",
                    "label": "Date/Time of Informed Consent",
                    "type": "Char",
                    "length": 10
                },
                {
                    "name": "RFPENDTC",
                    "label": "Date/Time of End of Participation",
                    "type": "Char",
                    "length": 10
                },
                {
                    "name": "DTHDTC",
                    "label": "Date/Time of Death",
                    "type": "Char",
                    "length": 10
                },
                {
                    "name": "DTHFL",
                    "label": "Subject Death Flag",
                    "type": "Char",
                    "length": 1
                },
                {
                    "name": "SITEID",
                    "label": "Study Site Identifier",
                    "type": "Char",
                    "length": 3
                },
                {
                    "name": "BRTHDTC",
                    "label": "Date/Time of Birth",
                    "type": "Char",
                    "length": 10
                },
                {
                    "name": "AGE",
                    "label": "Age",
                    "type": "Num",
                    "length": 8
                },
                {
                    "name": "AGEU",
                    "label": "Age Units",
                    "type": "Char",
                    "length": 5
                },
                {
                    "name": "SEX",
                    "label": "Sex",
                    "type": "Char",
                    "length": 1
                },
                {
                    "name": "RACE",
                    "label": "Race",
                    "type": "Char",
                    "length": 41
                },
                {
                    "name": "ETHNIC",
                    "label": "Ethnicity",
                    "type": "Char",
                    "length": 22
                },
                {
                    "name": "ARMCD",
                    "label": "Planned Arm Code",
                    "type": "Char",
                    "length": 8
                },
                {
                    "name": "ARM",
                    "label": "Description of Planned Arm",
                    "type": "Char",
                    "length": 28
                },
                {
                    "name": "ACTARMCD",
                    "label": "Actual Arm Code",
                    "type": "Char",
                    "length": 8
                },
                {
                    "name": "ACTARM",
                    "label": "Description of Actual Arm",
                    "type": "Char",
                    "length": 28
                },
                {
                    "name": "ARMNRS",
                    "label": "Reason Arm and/or Actual Arm is Null",
                    "type": "Char",
                    "length": 14
                },
                {
                    "name": "ACTARMUD",
                    "label": "Description of Unplanned Actual Arm",
                    "type": "Char",
                    "length": 200
                },
                {
                    "name": "COUNTRY",
                    "label": "Country",
                    "type": "Char",
                    "length": 3
                }
            ],
            "records": {
                "STUDYID": [
                    "CDISCPILOT01",
                    "CDISCPILOT01",
                    "CDISCPILOT01",
                    "CDISCPILOT01",
                    "CDISCPILOT01",
                    "CDISCPILOT01"
                ],
                "DOMAIN": [
                    "DM",
                    "DM",
                    "DM",
                    "DM",
                    "DM",
                    "DM"
                ],
                "USUBJID": [
                    "CDISC001",
                    "CDISC002",
                    "CDISC003",
                    "CDISC004",
                    "CDISC005",
                    "CDISC015"
                ],
                "SUBJID": [
                    "1115",
                    "1211",
                    "1302",
                    "1345",
                    "1383",
                    "1022"
                ],
                "RFSTDTC": [
                    "2012-11-30",
                    "2013-01-14",
                    "",
                    "2014-03-17",
                    "2013-02-04",
                    ""
                ],
                "RFENDTC": [
                    "2013-01-23",
                    "2013-01-14",
                    "2013-11-05",
                    "2014-03-18",
                    "",
                    ""
                ],
                "RFXSTDTC": [
                    "2012-11-30",
                    "2012-11-15",
                    "2013-08-29",
                    "2013-10-08",
                    "2013-02-04",
                    ""
                ],
                "RFXENDTC": [
                    "2013-01-23",
                    "2013-01-12",
                    "2013-11-05",
                    "2014-03-18",
                    "2013-08-06",
                    ""
                ],
                "RFICDTC": [
                    "2012-11-23",
                    "2012-10-30",
                    "2013-08-20",
                    "2013-10-01",
                    "2013-01-22",
                    "2014-03-17"
                ],
                "RFPENDTC": [
                    "2013-05-20",
                    "2013-01-14",
                    "2014-02-13",
                    "2014-03-18",
                    "2013-08-06",
                    "2014-03-17"
                ],
                "DTHDTC": [
                    "",
                    "2013-01-14",
                    "",
                    "",
                    "",
                    ""
                ],
                "DTHFL": [
                    "",
                    "Y",
                    "",
                    "",
                    "",
                    ""
                ],
                "SITEID": [
                    "701",
                    "701",
                    "701",
                    "701",
                    "701",
                    "711"
                ],
                "BRTHDTC": [
                    "1928",
                    "1936",
                    "1951",
                    "1950",
                    "1941",
                    "1928"
                ],
                "AGE": [
                    84,
                    76,
                    61,
                    63,
                    72,
                    86
                ],
                "AGEU": [
                    "YEARS",
                    "YEARS",
                    "YEARS",
                    "YEARS",
                    "YEARS",
                    "YEARS"
                ],
                "SEX": [
                    "M",
                    "F",
                    "M",
                    "F",
                    "F",
                    "F"
                ],
                "RACE": [
                    "WHITE",
                    "WHITE",
                    "WHITE",
                    "WHITE",
                    "WHITE",
                    "WHITE"
                ],
                "ETHNIC": [
                    "NOT HISPANIC OR LATINO",
                    "NOT HISPANIC OR LATINO",
                    "NOT HISPANIC OR LATINO",
                    "NOT HISPANIC OR LATINO",
                    "NOT HISPANIC OR LATINO",
                    "NOT HISPANIC OR LATINO"
                ],
                "ARMCD": [
                    "ZAN_LOW",
                    "ZAN_HIGH",
                    "ZAN_HIGH",
                    "PLACEBO",
                    "PLACEBO",
                    "ZAN_LOW"
                ],
                "ARM": [
                    "Zanomaline Low Dose (54 mg)",
                    "Zanomaline High Dose (81 mg)",
                    "Zanomaline High Dose (81 mg)",
                    "Placebo",
                    "Placebo",
                    "Zanomaline Low Dose (54 mg)"
                ],
                "ACTARMCD": [
                    "ZAN_LOW",
                    "ZAN_HIGH",
                    "ZAN_HIGH",
                    "PLACEBO",
                    "",
                    ""
                ],
                "ACTARM": [
                    "Zanomaline Low Dose (54 mg)",
                    "Zanomaline High Dose (81 mg)",
                    "Zanomaline High Dose (81 mg)",
                    "Placebo",
                    "",
                    ""
                ],
                "ARMNRS": [
                    "",
                    "",
                    "",
                    "",
                    "NOT ASSIGNED",
                    "SCREEN FAILURE"
                ],
                "ACTARMUD": [
                    "",
                    "",
                    "",
                    "",
                    "",
                    ""
                ],
                "COUNTRY": [
                    "USA",
                    "USA",
                    "USA",
                    "USA",
                    "USA",
                    "USA"
                ]
            }
        },
        {
            "filename": "ta.xpt",
            "label": "Trial Arms",
            "domain": "TA",
            "variables": [
                {
                    "name": "STUDYID",
                    "label": "Study Identifier",
                    "type": "Char",
                    "length": 12
                },
                {
                    "name": "DOMAIN",
                    "label": "Domain Abbreviation",
                    "type": "Char",
                    "length": 2
                },
                {
                    "name": "ARMCD",
                    "label": "Planned Arm Code",
                    "type": "Char",
                    "length": 8
                },
                {
                    "name": "ARM",
                    "label": "Description of Planned Arm",
                    "type": "Char",
                    "length": 28
                },
                {
                    "name": "TAETORD",
                    "label": "Planned Order of Element within Arm",
                    "type": "Num",
                    "length": 8
                },
                {
                    "name": "ETCD",
                    "label": "Element Code",
                    "type": "Char",
                    "length": 7
                },
                {
                    "name": "ELEMENT",
                    "label": "Description of Element",
                    "type": "Char",
                    "length": 26
                },
                {
                    "name": "TABRANCH",
                    "label": "Branch",
                    "type": "Char",
                    "length": 200
                },
                {
                    "name": "TATRANS",
                    "label": "Transition Rule",
                    "type": "Char",
                    "length": 200
                },
                {
                    "name": "EPOCH",
                    "label": "Epoch",
                    "type": "Char",
                    "length": 9
                }
            ],
            "records": {
                "STUDYID": [
                    "CDISCPILOT01",
                    "CDISCPILOT01",
                    "CDISCPILOT01",
                    "CDISCPILOT01",
                    "CDISCPILOT01",
                    "CDISCPILOT01",
                    "CDISCPILOT01",
                    "CDISCPILOT01"
                ],
                "DOMAIN": [
                    "TA",
                    "TA",
                    "TA",
                    "TA",
                    "TA",
                    "TA",
                    "TA",
                    "TA"
                ],
                "ARMCD": [
                    "PLACEBO",
                    "PLACEBO",
                    "ZAN_LOW",
                    "ZAN_LOW",
                    "ZAN_HIGH",
                    "ZAN_HIGH",
                    "ZAN_HIGH",
                    "ZAN_HIGH"
                ],
                "ARM": [
                    "Placebo",
                    "Placebo",
                    "Zanomaline Low Dose (54 mg)",
                    "Zanomaline Low Dose (54 mg)",
                    "Zanomaline High Dose (81 mg)",
                    "Zanomaline High Dose (81 mg)",
                    "Zanomaline High Dose (81 mg)",
                    "Zanomaline High Dose (81 mg)"
                ],
                "TAETORD": [
                    1,
                    2,
                    1,
                    2,
                    1,
                    2,
                    3,
                    4
                ],
                "ETCD": [
                    "SCREEN",
                    "PLACEBO",
                    "SCREEN",
                    "LOW",
                    "SCREEN",
                    "TITRATE",
                    "HIGH",
                    "TITRATE"
                ],
                "ELEMENT": [
                    "Screening",
                    "Placebo",
                    "Screening",
                    "Zanomaline 54 mg",
                    "Screening",
                    "Zanomaline 54 mg Titration",
                    "Zanomaline 81 mg",
                    "Zanomaline 54 mg Titration"
                ],
                "TABRANCH": [
                    "Randomized to Placebo",
                    "",
                    "Randomized to Zanomaline Low Dose",
                    "",
                    "Randomized to Zanomaline High Dose",
                    "",
                    "",
                    ""
                ],
                "TATRANS": [
                    "",
                    "",
                    "",
                    "",
                    "",
                    "",
                    "",
                    ""
                ],
                "EPOCH": [
                    "SCREENING",
                    "TREATMENT",
                    "SCREENING",
                    "TREATMENT",
                    "SCREENING",
                    "TREATMENT",
                    "TREATMENT",
                    "TREATMENT"
                ]
            }
        },
        {
            "filename": "tv.xpt",
            "label": "Trial Visits",
            "domain": "TV",
            "variables": [
                {
                    "name": "STUDYID",
                    "label": "Study Identifier",
                    "type": "Char",
                    "length": 12
                },
                {
                    "name": "DOMAIN",
                    "label": "Domain Abbreviation",
                    "type": "Char",
                    "length": 2
                },
                {
                    "name": "VISITNUM",
                    "label": "Visit Number",
                    "type": "Num",
                    "length": 8
                },
                {
                    "name": "VISIT",
                    "label": "Visit Name",
                    "type": "Char",
                    "length": 200
                },
                {
                    "name": "ARMCD",
                    "label": "Planned Arm Code",
                    "type": "Char",
                    "length": 8
                },
                {
                    "name": "ARM",
                    "label": "Description of Planned Arm",
                    "type": "Char",
                    "length": 28
                },
                {
                    "name": "TVSTRL",
                    "label": "Visit Start Rule",
                    "type": "Char",
                    "length": 200
                },
                {
                    "name": "TVENRL",
                    "label": "Visit End Rule",
                    "type": "Char",
                    "length": 200
                }
            ],
            "records": {
                "STUDYID": [
                    "CDISCPILOT01",
                    "CDISCPILOT01",
                    "CDISCPILOT01",
                    "CDISCPILOT01",
                    "CDISCPILOT01",
                    "CDISCPILOT01",
                    "CDISCPILOT01",
                    "CDISCPILOT01",
                    "CDISCPILOT01",
                    "CDISCPILOT01",
                    "CDISCPILOT01",
                    "CDISCPILOT01",
                    "CDISCPILOT01",
                    "CDISCPILOT01"
                ],
                "DOMAIN": [
                    "TV",
                    "TV",
                    "TV",
                    "TV",
                    "TV",
                    "TV",
                    "TV",
                    "TV",
                    "TV",
                    "TV",
                    "TV",
                    "TV",
                    "TV",
                    "TV"
                ],
                "VISITNUM": [
                    1,
                    2,
                    3,
                    4,
                    5,
                    7,
                    8,
                    9,
                    10,
                    11,
                    12,
                    13,
                    101,
                    201
                ],
                "VISIT": [
                    "SCREENING 1",
                    "SCREENING 2",
                    "BASELINE",
                    "WEEK 2",
                    "WEEK 4",
                    "WEEK 6",
                    "WEEK 8",
                    "WEEK 12",
                    "WEEK 16",
                    "WEEK 20",
                    "WEEK 24",
                    "WEEK 26",
                    "EARLY DISCONTINUATION",
                    "EARLY DISCONTINUATION RETRIEVAL"
                ],
                "ARMCD": [
                    "PLACEBO",
                    "PLACEBO",
                    "ZAN_LOW",
                    "ZAN_LOW",
                    "ZAN_HIGH",
                    "ZAN_HIGH",
                    "ZAN_HIGH",
                    "ZAN_HIGH",
                    "",
                    "",
                    "",
                    "",
                    "",
                    ""
                ],
                "ARM": [
                    "Placebo",
                    "Placebo",
                    "Zanomaline Low Dose (54 mg)",
                    "Zanomaline Low Dose (54 mg)",
                    "Zanomaline High Dose (81 mg)",
                    "Zanomaline High Dose (81 mg)",
                    "Zanomaline High Dose (81 mg)",
                    "Zanomaline High Dose (81 mg)",
                    "",
                    "",
                    "",
                    "",
                    "",
                    ""
                ],
                "TVSTRL": [
                    "Informed Consent Obtained",
                    "Day Before Initial Study Treatment",
                    "Day of Initial Study Treatment",
                    "2 Weeks After Start of Study Treatment",
                    "4 Weeks After Start of Study Treatment",
                    "6 Weeks After Start of Study Treatment",
                    "8 Weeks After Start of Study Treatment",
                    "12 Weeks After Start of Study Treatment",
                    "16 Weeks After Start of Study Treatment",
                    "20 Weeks After Start of Study Treatment",
                    "24 Weeks After Start of Study Treatment",
                    "26 Weeks After Start of Study Treatment",
                    "Discontinuation Date Prior to Week 24",
                    "Approximately 24 Weeks After Start of Study Treatment for Early Discontinuations"
                ],
                "TVENRL": [
                    "Screening Assessments Completed",
                    "",
                    "",
                    "",
                    "",
                    "",
                    "",
                    "",
                    "",
                    "",
                    "",
                    "",
                    "",
                    ""
                ]
            }
        }
    ],
    "standard": {
        "product": "sdtmig",
        "version": "3-4"
    },
    "codelists": []
}