STUDYID,USUBJID,SUBJID,SITEID,AGE,AGEU,SEX,RACE,COMPLFL,FASFL,SAFFL,ITTFL,PPROTFL,ENRLFL,RANDFL,COMPLFN,FASFN,ITTFN,PPROTFN,SAFFN,RANDFN,ENRLFN,ARMCD,ARM,ACTARMCD,ACTARM,TRT01P,TRT01PN,TRT01A,TRT01AN,RFSTDTC,RFENDTC,RFXSTDTC,RFXENDTC,EOSSTT,EOTSTT,TRTEDT,TRTDURD,HTBL,WTBL,BMIBL,DTHFL,DTHDT
Study Identifier,Unique Subject Identifier,Subject Identifier for the Study,Study Site Identifier,Age,Age Units,Sex,Race,Completers Population Flag,Full Analysis Set Population Flag,Safety Population Flag,Intent-To-Treat Population Flag,Per-Protocol Population Flag,Enrolled Population Flag,Randomized Population Flag,Completers Population Flag (N),Full Analysis Set Population Flag (N),Intent-To-Treat Population Flag (N),Per-Protocol Population Flag (N),Safety Population Flag (N),Randomized Population Flag (N),Enrolled Population Flag (N),Planned Arm Code,Description of Planned Arm,Actual Arm Code,Description of Actual Arm,Planned Treatment for Period 01,Planned Treatment for Period 01 (N),Actual Treatment for Period 01,Actual Treatment for Period 01 (N),Subject Reference Start Date/Time,Subject Reference End Date/Time,Date/Time of First Study Exposure,Date/Time of Last Study Treatment,End of Study Status,End of Treatment Status,Date of Last Exposure to Treatment,Total Treatment Duration (Days),Baseline Body Height (unit),Baseline Body Weight (unit),Baseline Body Mass Index (unit),Subject Death Flag,Date of Death
Char,Char,Char,Char,Num,Char,Char,Char,Char,Char,Char,Char,Char,Char,Char,Num,Num,Num,Num,Num,Num,Num,Char,Char,Char,Char,Char,Num,Char,Num,Char,Char,Char,Char,Char,Char,Char,Num,Num,Num,Num,Char,Num
8,17,8,2,8,5,1,50,1,1,1,1,1,1,1,8,8,8,8,8,8,8,8,12,8,12,12,8,12,8,12,12,12,12,12,12,12,8,16,16,16,1,12
STUDY001,STUDY001-SUBJ0001,SUBJ0001,13,77,YEARS,F,BLACK OR AFRICAN AMERICAN,Y,Y,Y,Y,Y,Y,Y,1,1,1,1,1,1,1,"2,00 ARM",Treatment 2,"2,00 ARM",Treatment 2,Treatment 2,2,Treatment 2,2,14/01/2026,24/07/2026,28/02/2026,20/07/2026,COMPLETED,COMPLETED,20/07/2026,143,153.7,99.6,18.4,N,
STUDY001,STUDY001-SUBJ0002,SUBJ0002,43,30,YEARS,F,AMERICAN INDIAN OR ALASKA NATIVE,Y,Y,Y,Y,Y,Y,Y,1,1,1,1,1,1,1,"2,00 ARM",Treatment 2,"2,00 ARM",Treatment 2,Treatment 2,2,Treatment 2,2,04/01/2026,11/07/2026,09/04/2026,12/07/2026,COMPLETED,COMPLETED,12/07/2026,95,187.6,114.9,26.6,N,
STUDY001,STUDY001-SUBJ0003,SUBJ0003,12,28,YEARS,F,ASIAN,Y,Y,Y,Y,Y,Y,Y,1,1,1,1,1,1,1,"3,00 ARM",Treatment 3,"3,00 ARM",Treatment 3,Treatment 3,3,Treatment 3,3,18/11/2025,01/07/2026,27/12/2025,11/07/2026,COMPLETED,COMPLETED,11/07/2026,197,195.3,119.1,20.7,N,
STUDY001,STUDY001-SUBJ0004,SUBJ0004,18,69,YEARS,M,BLACK OR AFRICAN AMERICAN,Y,Y,Y,Y,Y,Y,Y,1,1,1,1,1,1,1,"2,00 ARM",Treatment 2,"2,00 ARM",Treatment 2,Treatment 2,2,Treatment 2,2,21/10/2025,16/07/2026,30/04/2026,21/07/2026,COMPLETED,COMPLETED,21/07/2026,83,172.8,85.6,23.9,N,
STUDY001,STUDY001-SUBJ0005,SUBJ0005,17,30,YEARS,M,OTHER,Y,Y,Y,Y,Y,Y,Y,1,1,1,1,1,1,1,"1,00 ARM",Treatment 1,"1,00 ARM",Treatment 1,Treatment 1,1,Treatment 1,1,24/02/2026,14/07/2026,03/02/2026,19/07/2026,COMPLETED,COMPLETED,19/07/2026,167,163.0,72.5,32.2,N,