STUDYID,USUBJID,AESEQ,AETERM,AEDECOD,AEBODSYS,AESER,AEBDSYCD,AELLT,AELLTCD,AEPTCD,AEHLT,AEHLTCD,AEHLGT,AEHLGTCD,AESOC,AESOCCD,AESTDTC,ASTDT,AEENDTC,AENDT,ASTDY,AENDY,TRTEMFL,AEREL,AERELN,AESEV,AESEVN,AETOXGR,AETOXGRN,ANL01FL,ANL01FN,ANL02FL,ANL02FN,APERIOD,APERIODC,APHASE,APHASEN,AREL,ARELN,ASEV,ASEVN,ASPER,ASPERC,ATOXGR,ATOXGRN,ATPT,ATPTN,AVISIT,AVISITN,CRIT1FL,CRIT2FL,CRIT1FN,CRIT2FN,LVOTFL,LVOTFN,MCRIT1ML,MCRIT2ML,MCRIT1MN,MCRIT2MN,ONTR01FL,ONTR02FL,ONTRT1FL,ONTRT2FL,ONTRTFL,ONTRTFN,RELGR1,RELGR1N,RELGR2,RELGR2N,SEVGR1,SEVGR1N,SEVGR2,SEVGR2N,SHIFT1,SHIFT1N,SHIFT2,SHIFT2N,SMQ01SC,SMQ01SCN,SMQ02SC,SMQ02SCN,TOXGGR1,TOXGGR1N,TOXGGR2,TOXGGR2N,TRTA,TRTAN,TRTP,TRTPN,PREFL,FUPFL,AOCC01FL,AOCC02FL
Study Identifier,Unique Subject Identifier,Sequence Number,Reported Term for the Adverse Event,Dictionary-Derived Term,Body System or Organ Class,Serious Event,Body System or Organ Class Code,Lowest Level Term,Lowest Level Term Code,Preferred Term Code,High Level Term,High Level Term Code,High Level Group Term,High Level Group Term Code,Primary System Organ Class,Primary System Organ Class Code,Start Date/Time of Adverse Event,Analysis Start Date,End Date/Time of Adverse Event,Analysis End Date,Analysis Start Relative Day,Analysis End Relative Day,Treatment Emergent Analysis Flag,Causality,Causality (N),Severity/Intensity,Severity/Intensity (N),Standard Toxicity Grade,Standard Toxicity Grade (N),Analysis Record Flag 01,Analysis Flag 01 (N),Analysis Record Flag 02,Analysis Flag 02 (N),Period,Period (C),Phase,Phase (N),Analysis Causality,Analysis Causality (N),Analysis Severity/Intensity,Analysis Severity/Intensity (N),Subperiod within Period,Subperiod within Period (C),Analysis Toxicity Grade,Analysis Toxicity Grade (N),Analysis Timepoint,Analysis Timepoint (N),Analysis Visit,Analysis Visit (N),Criterion 1 Evaluation Result Flag,Criterion 2 Evaluation Result Flag,Criterion 1 Evaluation Result Flag (N),Criterion 2 Evaluation Result Flag (N),Last Value On Treatment Record Flag,Last Value On Treatment Record Flag (N),Multi-Response Criterion 1 Evaluation,Multi-Response Criterion 2 Evaluation,Multi-Response Criterion 1 Eval (N),Multi-Response Criterion 2 Eval (N),On Treatment Period 01 Flag,On Treatment Period 02 Flag,On Treatment Record 1 Flag,On Treatment Record 2 Flag,On Treatment Record Flag,On Treatment Record Flag (N),Pooled Causality Group 1,Pooled Causality Group 1 (N),Pooled Causality Group 2,Pooled Causality Group 2 (N),Pooled Severity Group 1,Pooled Severity Group 1 (N),Pooled Severity Group 2,Pooled Severity Group 2 (N),Shift 1,Shift 1 (N),Shift 2,Shift 2 (N),SMQ 01 Scope,SMQ 01 Scope (N),SMQ 02 Scope,SMQ 02 Scope (N),Pooled Toxicity Grade Group 1,Pooled Toxicity Grade 1 (N),Pooled Toxicity Grade Group 2,Pooled Toxicity Grade 2 (N),Actual Treatment,Actual Treatment (N),Planned Treatment,Planned Treatment (N),Pre-treatment Flag,Follow-up Flag,Occurrence Flag 01,Occurrence Flag 02
Char,Char,Num,Char,Char,Char,Char,Num,Char,Num,Num,Char,Num,Char,Char,Char,Num,Char,Num,Char,Num,Num,Num,Char,Char,Num,Char,Num,Char,Num,Char,Num,Char,Num,Num,Char,Char,Num,Char,Num,Char,Num,Num,Char,Char,Num,Char,Num,Char,Num,Char,Char,Num,Num,Char,Num,Char,Char,Num,Num,Char,Char,Char,Char,Char,Num,Char,Num,Char,Num,Char,Num,Char,Num,Char,Num,Char,Num,Char,Num,Char,Num,Char,Num,Char,Num,Char,Num,Char,Num,Char,Char,Char,Char
8,17,8,32,32,64,1,16,32,16,16,32,16,16,16,24,16,12,32,12,32,8,8,1,8,8,8,8,16,8,1,1,1,1,8,16,8,8,8,8,8,8,8,8,8,8,8,8,8,8,1,1,1,1,1,1,16,16,8,8,1,1,1,1,1,1,8,8,8,8,8,8,8,8,8,8,8,8,16,8,16,8,16,8,16,8,8,8,8,8,1,1,1,1
STUDY001,STUDY001-SUBJ0001,1,PAIN,PAIN,CARDIAC DISORDERS,Y,105502,GOOD,10542,210542,FANTASTIC,10542,BIG GROUP,GR0023211,BIG ORGAN,10221,26/01/2026,10003423,26/02/2026,10005423,49,60,Y,AERELA,1001,AESEVA,1001,AETOXGRA,1001,Y,1,Y,1,1001,APERIODCA,APHASEA,1001,ARELA,1001,ASEVA,1001,1001,ASPERCA,ATOXGRA,1001,ATPTA,1001,AVISITA,1001,Y,Y,1,1,Y,1,MCRIT1MLA,MCRIT2MLA,1001,1001,Y,Y,Y,Y,Y,1,RELGR1A,1001,RELGR2A,1001,SEVGR1A,1001,SEVGR2A,1001,SHIFT1A,1001,SHIFT2A,1001,SMQ01SCA,1001,SMQ02SCA,1001,TOXGGR1A,1001,TOXGGR2A,1001,TRTAA,1001,TRTPA,1001,Y,Y,Y,Y
STUDY001,STUDY001-SUBJ0002,2,DIZZINESS,DIZZINESS,NERVOUS SYSTEM DISORDERS,Y,103322,MEDIUM,10211,210211,NORMAL,10211,MEDIUM GROUP,GT0343424,MEDIUM ORGAN,9678,26/03/2026,10001223,26/04/2026,10001463,140,170,,AERELB,1002,AESEVB,1002,AETOXGRB,1002,,0,,0,1002,APERIODCB,APHASEB,1002,ARELB,1002,ASEVB,1002,1002,ASPERCB,ATOXGRB,1002,ATPTB,1002,AVISITB,1002,N,N,0,0,,0,MCRIT1MLB,MCRIT2MLB,1002,1002,N,N,N,N,,0,RELGR1B,1002,RELGR2B,1002,SEVGR1B,1002,SEVGR2B,1002,SHIFT1B,1002,SHIFT2B,1002,SMQ01SCB,1002,SMQ02SCB,1002,TOXGGR1B,1002,TOXGGR2B,1002,TRTAB,1002,TRTPB,1002,,,,
STUDY001,STUDY001-SUBJ0003,3,RASH,RASH,NERVOUS SYSTEM DISORDERS,N,102211,BAD,10022,210022,POOR,10022,SMALL GROUP,GY5232032,SMALL ORGAN,7605,26/04/2026,10012223,26/05/2026,10022223,69,180,Y,AERELC,1003,AESEVC,1003,AETOXGRC,1003,Y,1,Y,1,1003,APERIODCC,APHASEC,1003,ARELC,1003,ASEVC,1003,1003,ASPERCC,ATOXGRC,1003,ATPTC,1003,AVISITC,1003,Y,Y,1,1,Y,1,MCRIT1MLC,MCRIT2MLC,1003,1003,Y,Y,Y,Y,Y,1,RELGR1C,1003,RELGR2C,1003,SEVGR1C,1003,SEVGR2C,1003,SHIFT1C,1003,SHIFT2C,1003,SMQ01SCC,1003,SMQ02SCC,1003,TOXGGR1C,1003,TOXGGR2C,1003,TRTAC,1003,TRTPC,1003,Y,Y,Y,Y
