STUDYID,USUBJID,USUBJIDN,PARAMCD,AVAL,PARAM,PARAMN,PROJID,PROJIDN,STUDYIDN,SUBJTYP,SUBJTYPC,SUBJID,SUBJIDN,SITEID,SITEIDN,FLGREAS,FLGREASC,DVID,DVIDN,BLQFL,BLQFN,ALQFL,ALQFN,FORM,FORMN,ROUTE,ROUTEN,ACYCLE,ACYCLEC,COHORT,COHORTC,RACE,RACEN,SEX,SEXN,COUNTRY,COUNTRYN,COUNTRYL
Study Identifier,Unique Subject Identifier,Unique Subject Identifier (N),Parameter Code,Analysis Value,Parameter,Parameter (N),Project Identifier,Project Identifier (N),Study Identifier (N),Subject Type,Subject Type (C),Subject Identifier,Subject Identifier (N),Site Identifier,Site Identifier (N),Flag Reason,Flag Reason (C),Device ID,Device ID (N),Below LLOQ Flag,Below LLOQ Flag (N),Above ULOQ Flag,Above ULOQ Flag (N),Form,Form (N),Route,Route (N),Analysis Cycle,Analysis Cycle (C),Cohort,Cohort (C),Race,Race (N),Sex,Sex (N),Country,Country (N),Country (L)
Char,Char,Num,Char,Num,Char,Num,Char,Num,Num,Char,Char,Char,Num,Char,Num,Char,Char,Char,Num,Char,Num,Char,Num,Char,Num,Char,Num,Char,Char,Char,Char,Char,Num,Char,Num,Char,Num,Char
20,40,8,20,8,40,8,40,8,8,40,40,40,8,40,8,40,40,40,8,40,8,40,8,40,8,40,8,40,40,40,40,40,8,40,8,40,8,40
STUDY001,STUDY001-001,1,PK1,10.5,Weight,1,PROJ-A,1,1,Healthy,A,SUBJ-001,1,SITE-001,1,Dose time imputed,A,Dose,0,Y,1,Y,1,Tablet,1,Oral,1,Cycle1,A,Cohort A,A,White,1,M,1,USA,1,United States
STUDY001,STUDY001-001,1,PK1,10.5,Weight,1,PROJ-A,1,1,Healthy,A,SUBJ-001,1,SITE-001,1,Dose time imputed,A,Dose,0,Y,1,Y,1,Tablet,1,Oral,1,Cycle1,A,Cohort A,A,White,1,M,1,USA,1,United States
STUDY002,STUDY001-002,2,PK2,20.5,Height,2,PROJ-B,2,2,Patient,B,SUBJ-002,2,SITE-002,2,Observation imputed,B,Obs,1,N,0,N,0,Capsule,2,IV,2,Cycle2,B,Cohort B,B,Black,2,F,2,CAN,2,Canada
