STUDYID,USUBJID,PARAMCD,BASETYPE,ABLFL,AVAL
Study Identifier,Unique Subject Identifier,Parameter Code,Baseline Type,Baseline Record Flag,Analysis Value
Char,Char,Char,Char,Char,Num
20,40,8,20,1,8
STUDY001,STUDY001-001,PULSE,ORIGINAL,Y,70
STUDY001,STUDY001-001,PULSE,ORIGINAL,,72
STUDY001,STUDY001-001,PULSE,SCREENING,Y,68
STUDY001,STUDY001-002,PULSE,ORIGINAL,Y,71