STUDYID,USUBJID,PARAMCD,PARAM,PARAMTYP,AVAL,AVALCAT1,AVALCA1N,BASECAT1,BASECA1N,CHGCAT1,CHGCAT1N,PCHGCAT1,PCHGCA1N,MCRIT1ML,MCRIT1MN,BTOXGR,BTOXGRN,BTOXGRL,BTOXGRLN,BTOXGRH,BTOXGRHN,ATOXGRL,ATOXGRLN,ATOXGRH,ATOXGRHN,BCHGCAT1,BCHGCA1N,PBCHGCA1,PBCHGC1N,ANRLO,ANRLOC,ANRHI,ANRHIC,A1LO,A1LOC,A1HI,A1HIC
Study Identifier,Unique Subject Identifier,Parameter Code,Parameter,Parameter Type,Analysis Value,Analysis Value Category 1,Analysis Value Category 1 (N),Baseline Category 1,Baseline Category 1 (N),Change from Baseline Category 1,Change from Baseline Category 1 (N),Percent Chg from Baseline Category 1,Percent Chg from Baseline Category 1 (N),Multi-Response Criterion 1 Evaluation,Multi-Response Criterion 1 Eval (N),Baseline Toxicity Grade,Baseline Toxicity Grade (N),Baseline Toxicity Grade Low,Baseline Toxicity Grade Low (N),Baseline Toxicity Grade High,Baseline Toxicity Grade High (N),Analysis Toxicity Grade Low,Analysis Toxicity Grade Low (N),Analysis Toxicity Grade High,Analysis Toxicity Grade High (N),Change to Baseline Category 1,Change to Baseline Category 1 (N),Percent Change to Baseline Category 1,Percent Change to Baseline Category 1 (N),Analysis Normal Range Lower Limit,Analysis Normal Range Lower Limit (C),Analysis Normal Range Upper Limit,Analysis Normal Range Upper Limit (C),Analysis Reference Range Lower 1,Analysis Reference Range Lower 1 (C),Analysis Reference Range Upper 1,Analysis Reference Range Upper 1 (C)
Char,Char,Char,Char,Char,Num,Char,Num,Char,Num,Char,Num,Char,Num,Char,Num,Char,Num,Char,Num,Char,Num,Char,Num,Char,Num,Char,Num,Char,Num,Num,Char,Num,Char,Num,Char,Num,Char
40,40,40,40,40,8,40,8,40,8,40,8,40,8,40,8,40,8,40,8,40,8,40,8,40,8,40,8,40,8,8,40,8,40,8,40,8,40
STUDY001,STUDY001-001,PARAM1,Test Parameter 1,DERIVED,1,A1,1,A1,1,A1,1,A1,1,A1,1,A1,1,A1,1,A1,1,A1,1,A1,1,A1,1,A1,1,1,L1,10,H10,1,LO1,10,HI10
STUDY001,STUDY001-002,PARAM1,Test Parameter 1,DERIVED,2,A1,1,A1,1,A1,1,A1,1,A1,1,A1,1,A1,1,A1,1,A1,1,A1,1,A1,1,A1,1,1,L1,10,H10,1,LO1,10,HI10
STUDY001,STUDY001-003,PARAM2,Test Parameter 2,DERIVED,3,A2,1,A2,1,A2,1,A2,1,A2,1,A2,1,A2,1,A2,1,A2,1,A2,1,A2,1,A2,1,1,L1,10,H10,1,LO1,10,HI10
STUDY001,STUDY001-004,PARAM2,Test Parameter 2,DERIVED,4,A2,1,A2,1,A2,1,A2,1,A2,1,A2,1,A2,1,A2,1,A2,1,A2,1,A2,1,A2,1,1,L1,10,H10,1,LO1,10,HI10
