Rule ID,CORE-ID,Bundle ID,IG Version,ADaM Structure Group,Variable or Item,Description,Engine Ready?,Rule Category,Status Rule,Assigned To,PR Link,Notes
AD0001,,,"1.0, 1.1, 1.2, 1.3",ADSL,,ADSL dataset does not exist,TRUE,,PR REVIEW,Richard,https://github.com/verisianHQ/core-contributor/pull/798,
AD0002,,Cross-source label equality,"1.0, 1.1, 1.2, 1.3",ALL,,A variable is present in ADaM with the same name as a variable present in SDTM but the variables do not have identical labels,FALSE,Cross-metadata; SDTM versus ADSL reference differs.,DIBS,Maximo,,
AD0005,,,"1.0, 1.1, 1.2, 1.3",ALL,*FL,"A variable with a suffix of FL has a value that is not Y, N or null",TRUE,,PR REVIEW,Richard,https://github.com/verisianHQ/core-contributor/pull/798,
AD0006,,,"1.0, 1.1, 1.2, 1.3",ALL,*FN,"A variable with a suffix of FL is present and a variable with the same root and a suffix of FN has a value that is not  0, 1 or null",TRUE,,PR REVIEW,Richard,https://github.com/verisianHQ/core-contributor/pull/798,
AD0007,,,"1.0, 1.1, 1.2, 1.3",ALL,*FL,A variable with a suffix of FN is present but a variable with the same root and a suffix of FL is not present,TRUE,,PR REVIEW,Richard,https://github.com/verisianHQ/core-contributor/pull/798,
AD0010,,Character/numeric flag correspondence,"1.0, 1.1, 1.2, 1.3",ALL,*FN,A variable with a suffix of FL is equal to Y and a variable with the same root and a suffix of FN is not equal to 1,TRUE,"Same-record paired-value consistency. **AD0012 implemented**, although its current YAML expresses a population dependency rather than the workbook's null mapping.",MIXED,,,"Currently AD0012 is done in PR 762, but might make sense to remove from there and reimplement here"
AD0011,,Character/numeric flag correspondence,"1.0, 1.1, 1.2, 1.3",ALL,*FN,A variable with a suffix of FL is equal to N and a variable with the same root and a suffix of FN is not equal to 0,TRUE,"Same-record paired-value consistency. **AD0012 implemented**, although its current YAML expresses a population dependency rather than the workbook's null mapping.",MIXED,,,"Currently AD0012 is done in PR 762, but might make sense to remove from there and reimplement here"
AD0012,,Character/numeric flag correspondence,"1.0, 1.1, 1.2, 1.3",ALL,*FN,A variable with a suffix of FL is equal to null and a variable with the same root and a suffix of FN is not equal to null,TRUE,"Same-record paired-value consistency. **AD0012 implemented**, although its current YAML expresses a population dependency rather than the workbook's null mapping.",MIXED,,,"Currently AD0012 is done in PR 762, but might make sense to remove from there and reimplement here"
AD0013,,,"1.0, 1.1, 1.2, 1.3",ALL,ALL,The length of a variable name exceeds 8 characters,TRUE,,PR REVIEW,Richard,https://github.com/verisianHQ/core-contributor/pull/798,
AD0014,,,"1.0, 1.1, 1.2, 1.3",ALL,ALL,A variable name does not start with a letter (A-Z),TRUE,,PR REVIEW,Richard,https://github.com/verisianHQ/core-contributor/pull/798,
AD0015,,,"1.0, 1.1, 1.2, 1.3",ALL,ALL,"A variable name contains a character other than letters (A-Z), underscores (_), or numerals (0-9)",TRUE,,PR REVIEW,Richard,https://github.com/verisianHQ/core-contributor/pull/798,
AD0016,,,"1.0, 1.1, 1.2, 1.3",ALL,ALL,The length of a variable label is greater than 40 characters,TRUE,,PR REVIEW,Richard,https://github.com/verisianHQ/core-contributor/pull/798,
AD0017,,,"1.0, 1.1, 1.2, 1.3",ALL,ALL,The length of a character value is greater than 200 characters,TRUE,,PR REVIEW,Richard,https://github.com/verisianHQ/core-contributor/pull/798,
AD0018,,Standard-variable label equality,1.0,ALL,ALL,"Labels for ADaM variables do not match the standard labels for ADaM variables listed in the implementation guide that cannot be modified (with the exception of 1) variables whose names contain indexes “y”, ""xx"", or “zz”; and (2) variable labels with asterisks (*) and ellipses (...) indicated for sponsor appropriate text)",FALSE,Variable metadata requiring IG reference metadata.,,,,
AD0019,,Present character flag values Y/N,"1.0, 1.1, 1.2, 1.3",ADSL,COMPLFL,COMPLFL is present and has a value that is not Y or N,TRUE,Metadata-gated record-value check.,PR REVIEW,Maximo,https://github.com/verisianHQ/core-contributor/pull/699,
AD0020,,Present character flag values Y/N,"1.0, 1.1, 1.2, 1.3",ADSL,FASFL,FASFL is present and has a value that is not Y or N,TRUE,Metadata-gated record-value check.,PR REVIEW,Maximo,https://github.com/verisianHQ/core-contributor/pull/699,
AD0021,,Present character flag values Y/N,"1.0, 1.1, 1.2, 1.3",ADSL,ITTFL,ITTFL is present and has a value that is not Y or N,TRUE,Metadata-gated record-value check.,PR REVIEW,Maximo,https://github.com/verisianHQ/core-contributor/pull/699,
AD0022,,Present character flag values Y/N,"1.0, 1.1, 1.2, 1.3",ADSL,PPROTFL,PPROTFL is present and has a value that is not Y or N,TRUE,Metadata-gated record-value check.,PR REVIEW,Maximo,https://github.com/verisianHQ/core-contributor/pull/699,
AD0023,,Present character flag values Y/N,"1.0, 1.1, 1.2, 1.3",ADSL,SAFFL,SAFFL is present and has a value that is not Y or N,TRUE,Metadata-gated record-value check.,PR REVIEW,Maximo,https://github.com/verisianHQ/core-contributor/pull/699,
AD0024,,Present character flag values Y/N,"1.0, 1.1, 1.2, 1.3",ADSL,RANDFL,RANDFL is present and has a value that is not Y or N,TRUE,Metadata-gated record-value check.,PR REVIEW,Maximo,https://github.com/verisianHQ/core-contributor/pull/699,
AD0025,,Present character flag values Y/N,"1.0, 1.1, 1.2, 1.3",ADSL,ENRLFL,ENRLFL is present and has a value that is not Y or N,TRUE,Metadata-gated record-value check.,PR REVIEW,Maximo,https://github.com/verisianHQ/core-contributor/pull/699,
AD0026,,Present numeric flag values 1/0,"1.0, 1.1, 1.2, 1.3",ADSL,COMPLFN,COMPLFN is present and has a value that is not 1 or 0,TRUE,Metadata-gated record-value check.,PR REVIEW,Maximo,https://github.com/verisianHQ/core-contributor/pull/699,
AD0027,,Present numeric flag values 1/0,"1.0, 1.1, 1.2, 1.3",ADSL,FASFN,FASFN is present and has a value that is not 1 or 0,TRUE,Metadata-gated record-value check.,PR REVIEW,Maximo,https://github.com/verisianHQ/core-contributor/pull/699,
AD0028,,Present numeric flag values 1/0,"1.0, 1.1, 1.2, 1.3",ADSL,ITTFN,ITTFN is present and has a value that is not 1 or 0,TRUE,Metadata-gated record-value check.,PR REVIEW,Maximo,https://github.com/verisianHQ/core-contributor/pull/699,
AD0029,,Present numeric flag values 1/0,"1.0, 1.1, 1.2, 1.3",ADSL,PPROTFN,PPROTFN is present and has a value that is not 1 or 0,TRUE,Metadata-gated record-value check.,PR REVIEW,Maximo,https://github.com/verisianHQ/core-contributor/pull/699,
AD0030,,Present numeric flag values 1/0,"1.0, 1.1, 1.2, 1.3",ADSL,SAFFN,SAFFN is present and has a value that is not 1 or 0,TRUE,Metadata-gated record-value check.,PR REVIEW,Maximo,https://github.com/verisianHQ/core-contributor/pull/699,
AD0031,,Present numeric flag values 1/0,"1.0, 1.1, 1.2, 1.3",ADSL,RANDFN,RANDFN is present and has a value that is not 1 or 0,TRUE,Metadata-gated record-value check.,PR REVIEW,Maximo,https://github.com/verisianHQ/core-contributor/pull/699,
AD0032,,Present numeric flag values 1/0,"1.0, 1.1, 1.2, 1.3",ADSL,ENRLFN,ENRLFN is present and has a value that is not 1 or 0,TRUE,Metadata-gated record-value check.,PR REVIEW,Maximo,https://github.com/verisianHQ/core-contributor/pull/699,
AD0033,,Suffix character flag Y/null,"1.0, 1.1",BDS,*RFL,A variable with a suffix of RFL has a value that is not Y or null,TRUE,Metadata-gated record values.,PR REVIEW,Maximo,https://github.com/verisianHQ/core-contributor/pull/752,
AD0034,,Suffix character flag Y/null,"1.0, 1.1",BDS,*PFL,A variable with a suffix of PFL has a value that is not Y or null,TRUE,Metadata-gated record values.,PR REVIEW,Maximo,https://github.com/verisianHQ/core-contributor/pull/752,
AD0035,,Suffix numeric flag 1/null,"1.0, 1.1",BDS,*RFN,A variable with a suffix of RFN has a value that is not 1 or null,TRUE,Metadata-gated record values.,PR REVIEW,Maximo,https://github.com/verisianHQ/core-contributor/pull/752,
AD0036,,Suffix numeric flag 1/null,"1.0, 1.1",BDS,*PFN,A variable with a suffix of PFN has a value that is not 1 or null,TRUE,Metadata-gated record values.,PR REVIEW,Maximo,https://github.com/verisianHQ/core-contributor/pull/752,
AD0037,,Reciprocal suffix mapping,1.0,ALL,,There is more than one value of a variable which has a suffix of GRyN for a given value of a variable with the same root name and suffix of GRy,FALSE,Cross-record reciprocity.,,,,
AD0038,,Reciprocal suffix mapping,1.0,ALL,,There is more than one value of a variable which has a suffix of GRy for a given value of a variable with the same root name and suffix of GRyN,FALSE,Cross-record reciprocity.,,,,
AD0039,,Date/time imputation controlled terminology,"1.0, 1.1, 1.2, 1.3",ALL,*DTF,A variable with a suffix of DTF has a value that is not within Controlled Terminology for DATEFL,FALSE,Record values plus suffix metadata.,PR REVIEW,Maximo,https://github.com/verisianHQ/core-contributor/pull/757,
AD0040,,Date/time imputation controlled terminology,"1.0, 1.1, 1.2, 1.3",ALL,*TMF,A variable with a suffix of TMF has a value that is not within Controlled Terminology for TIMEFL,FALSE,Record values plus suffix metadata.,PR REVIEW,Maximo,https://github.com/verisianHQ/core-contributor/pull/757,
AD0041,,Numeric date/time format,"1.0, 1.1, 1.2, 1.3",ALL,*DT,A numeric variable with a suffix of DT does not have a date format,TRUE,Variable metadata; suffix-specific format fixtures.,,,,
AD0042,,Numeric date/time format,"1.0, 1.1, 1.2, 1.3",ALL,*TM,"A numeric variable with a suffix of TM does not have a time format, excluding ARELTM and variables with a suffix of DTM",TRUE,Variable metadata; suffix-specific format fixtures.,,,,
AD0043,,Numeric date/time format,"1.0, 1.1, 1.2, 1.3",ALL,*DTM,A numeric variable with a suffix of DTM does not have a datetime format,FALSE,Variable metadata; suffix-specific format fixtures.,,,,
AD0044,,Paired date/time equality,"1.0, 1.1, 1.2, 1.3",ALL,*TM; *DTM,A variable with a suffix of TM and a variable with a suffix of DTM with the same root name have different time values,FALSE,Same-record paired-value comparison.,,,,
AD0045,,Paired date/time equality,"1.0, 1.1, 1.2, 1.3",ALL,*DT; *DTM,A variable with a suffix of DT and a variable with a suffix of DTM with the same root name have different date values,FALSE,Same-record paired-value comparison.,,,,
AD0046,,,"1.0, 1.1, 1.2, 1.3",ALL,*DY,A variable with a suffix of DY has a value of zero,FALSE,,PR REVIEW,Richard,https://github.com/verisianHQ/core-contributor/pull/798,
AD0047,,Unconditional required metadata variables,"1.0, 1.1, 1.2, 1.3",ADSL,,SITEID is not present within ADSL,FALSE,Variable metadata; unconditional within the applicable class/domain.,PR REVIEW,Enrico,https://github.com/verisianHQ/core-contributor/pull/709,
AD0048,,,"1.0, 1.1, 1.2, 1.3",ADSL,,A variable with a suffix of FL is not present in ADSL,FALSE,,PR REVIEW,Richard,https://github.com/verisianHQ/core-contributor/pull/798,
AD0049,,Unconditional required metadata variables,"1.0, 1.1, 1.2, 1.3",ADSL,,AGE is not present within ADSL,TRUE,Variable metadata; unconditional within the applicable class/domain.,PR REVIEW,Enrico,https://github.com/verisianHQ/core-contributor/pull/709,
AD0050,,Unconditional required metadata variables,"1.0, 1.1, 1.2, 1.3",ADSL,,AGEU is not present within ADSL,FALSE,Variable metadata; unconditional within the applicable class/domain.,PR REVIEW,Enrico,https://github.com/verisianHQ/core-contributor/pull/709,
AD0051,,Unconditional required metadata variables,"1.0, 1.1, 1.2, 1.3",ADSL,,SEX is not present within ADSL,TRUE,Variable metadata; unconditional within the applicable class/domain.,PR REVIEW,Enrico,https://github.com/verisianHQ/core-contributor/pull/709,
AD0052,,Unconditional required metadata variables,"1.0, 1.1, 1.2, 1.3",ADSL,,RACE is not present within ADSL,TRUE,Variable metadata; unconditional within the applicable class/domain.,PR REVIEW,Enrico,https://github.com/verisianHQ/core-contributor/pull/709,
AD0053,,,"1.0, 1.1, 1.2, 1.3",ALL,USUBJID,The value of USUBJID is not present in SDTM.DM,TRUE,,PR REVIEW,Richard,https://github.com/verisianHQ/core-contributor/pull/798,
AD0054,,,"1.0, 1.1, 1.2, 1.3",ADSL,USUBJID,Within ADSL there is more than one record for a unique value of USUBJID,TRUE,,PR REVIEW,Richard,https://github.com/verisianHQ/core-contributor/pull/798,
AD0055,,Unconditional required metadata variables,"1.0, 1.1, 1.2, 1.3",ADSL,,SUBJID is not present within ADSL,FALSE,Variable metadata; unconditional within the applicable class/domain.,PR REVIEW,Enrico,https://github.com/verisianHQ/core-contributor/pull/709,
AD0058,,Numeric variable type,"1.0, 1.1, 1.2, 1.3",ALL,*DT,A variable with a suffix of DT is not a numeric variable,TRUE,Variable metadata type check.,,,,
AD0059,,Numeric variable type,1.0,ALL,*TM,A variable with a suffix of TM is not a numeric variable,TRUE,Variable metadata type check.,PR REVIEW,,,
AD0060,,Numeric variable type,"1.0, 1.1, 1.2, 1.3",ALL,*DTM,A variable with a suffix of DTM is not a numeric variable,FALSE,Variable metadata type check.,,,,
AD0061,,,"1.0, 1.1, 1.2, 1.3",ADSL,TRTSDT; TRTSDTM,SDTM.EX is present and neither TRTSDT or TRTSDTM are present,FALSE,,PR REVIEW,Richard,https://github.com/verisianHQ/core-contributor/pull/798,
AD0064,,Conditional metadata companion existence,"1.0, 1.1, 1.2, 1.3",ADSL,"TRTxxAN where xx is an integer [01-99, zero-padded]",TRTxxAN is present and TRTxxA is not present,FALSE,"""Variable-metadata check; fixtures need column definitions, not populated records.""",PR REVIEW,Enrico,https://github.com/verisianHQ/core-contributor/pull/755,
AD0066,,Numeric companion requires character companion,"1.0, 1.1, 1.2, 1.3",ADSL,,"A variable with a prefix of TR, containing PG and a suffix of N is present and a variable with the same root without a suffix of N is not present",FALSE,Metadata dependency with root capture.,,,,
AD0070,,Numeric companion requires character companion,"1.0, 1.1, 1.2, 1.3",ADSL,,"A variable with a prefix of TR, containing AG with a suffix of N is present and a variable with the same root without a suffix of N is not present",TRUE,Metadata dependency with root capture.,PR REVIEW,,https://github.com/verisianHQ/core-contributor/pull/755,
AD0071,,Unconditional required metadata variables,"1.0, 1.1, 1.2, 1.3",ADSL,,ARM is not present within ADSL,FALSE,Variable metadata; unconditional within the applicable class/domain.,PR REVIEW,Enrico,https://github.com/verisianHQ/core-contributor/pull/709,
AD0072,,Unconditional required metadata variables,"1.0, 1.1, 1.2, 1.3",ADSL,,TRT01P is not present within ADSL,FALSE,Variable metadata; unconditional within the applicable class/domain.,PR REVIEW,Enrico,https://github.com/verisianHQ/core-contributor/pull/709,
AD0075,,Conditional metadata companion existence,"1.0, 1.1, 1.2, 1.3",ADSL,"TRTxxPN where xx is an integer [01-99, zero-padded]",TRTxxPN is present and TRTxxP is not present,TRUE,"""Variable-metadata check; fixtures need column definitions, not populated records.""",PR REVIEW,Enrico,https://github.com/verisianHQ/core-contributor/pull/755,
AD0076,,Unconditional one-to-one mapping consistency,1.0,ADSL,"TRTxxPN where xx is an integer [01-99, zero-padded]",There is more than one value of TRTxxPN for a given value of TRTxxP,TRUE,Cross-record dataset consistency without a both-populated prefilter.,WORKING ON,Maximo,,
AD0077,,Unconditional one-to-one mapping consistency,1.0,ADSL,"TRTxxP where xx is an integer [01-99, zero-padded]",There is more than one value of TRTxxP for a given value of TRTxxPN,TRUE,Cross-record dataset consistency without a both-populated prefilter.,PR REVIEW,Maximo,https://github.com/verisianHQ/core-contributor/pull/755,
AD0078,,Higher index requires index 01,"1.0, 1.1, 1.2, 1.3",ADSL,"TRTxxP where xx is an integer [01-99, zero-padded]",At least one TRTxxP is present where xx is greater than 01 and TRxxSDT is not present,TRUE,Metadata family completeness.,,,,very similar to AD0081 singleton
AD0079,,Higher index requires index 01,"1.0, 1.1, 1.2, 1.3",ADSL,"TRTxxP where xx is an integer [01-99, zero-padded]",At least one TRTxxP is present where xx is greater than 01 and TRxxEDT is not present,TRUE,Metadata family completeness.,,,,very similar to AD0081 singleton
AD0080,,Conditional metadata companion existence,"1.0, 1.1, 1.2, 1.3",ADSL,"TRTxxA where xx is an integer [01-99, zero-padded]",TRTxxA is present and TRTxxP is not present,FALSE,"""Variable-metadata check; fixtures need column definitions, not populated records.""",PR REVIEW,Enrico,https://github.com/verisianHQ/core-contributor/pull/755,
AD0081,,,"1.0, 1.1, 1.2, 1.3",ADSL,"TRTxxP where xx is an integer [01-99, zero-padded]",TRTxxP is present and xx is greater than 01 and TRT{xx-1}P is not present,FALSE,,PR REVIEW,Maximo,https://github.com/verisianHQ/core-contributor/pull/798,
AD0084,,,"1.0, 1.1, 1.2, 1.3",ADSL,TRTEDT,TRTEDT is not equal to the maximum value of all TRxxEDT variables,TRUE,,PR REVIEW,,https://github.com/verisianHQ/core-contributor/pull/755,
AD0085,,Cross-source label equality,"1.0, 1.1, 1.2, 1.3",ALL,,A variable is present with the same name as a variable present in ADSL but the variables do not have identical labels,FALSE,Cross-metadata; SDTM versus ADSL reference differs.,DIBS,Maximo,,
AD0086,,,"1.0, 1.1, 1.2, 1.3",ALL,,A variable is present with the same name as a variable present in ADSL but the variables do not have identical formats,FALSE,,,,,
AD0088,,Unconditional required metadata variables,"1.0, 1.1, 1.2, 1.3",ALL,,STUDYID is not present,TRUE,Variable metadata; unconditional within the applicable class/domain.,PR REVIEW,Enrico,https://github.com/verisianHQ/core-contributor/pull/709,
AD0089,,Unconditional required metadata variables,"1.0, 1.1, 1.2, 1.3",ALL,,USUBJID is not present,TRUE,Variable metadata; unconditional within the applicable class/domain.,PR REVIEW,Enrico,https://github.com/verisianHQ/core-contributor/pull/709,
AD0090,,Unconditional required metadata variables,1.0,BDS,,TRTP is not present,TRUE,Variable metadata; unconditional within the applicable class/domain.,WORKING ON,Enrico,,
AD0092,,Unconditional one-to-one mapping consistency,1.0,BDS,TRTPN,There is more than one value of TRTPN for a given value of TRTP,TRUE,Cross-record dataset consistency without a both-populated prefilter.,WORKING ON,Maximo,,
AD0093,,Unconditional one-to-one mapping consistency,1.0,BDS,TRTP,There is more than one value of TRTP for a given value of TRTPN,TRUE,Cross-record dataset consistency without a both-populated prefilter.,PR REVIEW,Maximo,https://github.com/verisianHQ/core-contributor/pull/709,
AD0095,,Unconditional one-to-one mapping consistency,1.0,BDS,TRTAN,There is more than one value of TRTAN for a given value of TRTA,TRUE,Cross-record dataset consistency without a both-populated prefilter.,WORKING ON,Maximo,,
AD0096,,Unconditional one-to-one mapping consistency,1.0,BDS,TRTA,There is more than one value of TRTA for a given value of TRTAN,TRUE,Cross-record dataset consistency without a both-populated prefilter.,PR REVIEW,Maximo,https://github.com/verisianHQ/core-contributor/pull/772,
AD0097,,Conditional metadata companion existence,"1.0, 1.1, 1.2, 1.3",BDS;MDBDS,"TRTPGy where y is an integer [1-9, not zero-padded]; TRTPGy where y is an integer [1-99, not zero-padded]",TRTPGyN is present and TRTPGy is not present,TRUE,"""Variable-metadata check; fixtures need column definitions, not populated records.""",PR REVIEW,Enrico,https://github.com/verisianHQ/core-contributor/pull/755,
AD0098,,Paired suffix ordering,"1.0, 1.1, 1.2, 1.3",BDS;MDBDS,*SDY,"On a given record, a variable with a suffix of SDY has a value greater than a value of a variable with the same root and a suffix of EDY, and both variables are populated",TRUE,Same-record comparison with same-root suffix substitution.,,,,
AD0099,,Paired suffix ordering,"1.0, 1.1, 1.2, 1.3",BDS;MDBDS,*STDY,"On a given record, a variable with a suffix of STDY has a value greater than a value of a variable with the same root and a suffix of ENDY, and both variables are populated",TRUE,Same-record comparison with same-root suffix substitution.,,,,
AD0102,,Index value requires matching indexed component,"1.0, 1.1, 1.2, 1.3",ALL,APERIOD,"For every unique xx value of APERIOD, there is not an ADSL variable TRTxxP",TRUE,Record condition plus metadata family lookup.,,,,
AD0103,,Index value requires matching indexed component,"1.0, 1.1, 1.2, 1.3",ALL,APERIOD,"For every unique xx value of APERIOD, there is not an ADSL variable TRxxSDT",TRUE,Record condition plus metadata family lookup.,PR REVIEW,,https://github.com/verisianHQ/core-contributor/pull/755,
AD0104,,Index value requires matching indexed component,"1.0, 1.1, 1.2, 1.3",ALL,APERIOD,"For every unique xx value of APERIOD, there is not an ADSL variable TRxxEDT",FALSE,Record condition plus metadata family lookup.,,,,
AD0105,,Unconditional one-to-one mapping consistency,1.0,ALL,APERIODC,There is more than one value of APERIODC for a given value of APERIOD,FALSE,Cross-record dataset consistency without a both-populated prefilter.,PR REVIEW,Maximo,https://github.com/verisianHQ/core-contributor/pull/772,
AD0106,,Unconditional one-to-one mapping consistency,1.0,ALL,APERIOD,There is more than one value of APERIOD for a given value of APERIODC,FALSE,Cross-record dataset consistency without a both-populated prefilter.,PR REVIEW,Maximo,https://github.com/verisianHQ/core-contributor/pull/772,
AD0109,,Group-qualified one-to-one mapping,1.0,BDS,AVISITN,"Within a given value of PARAMCD, there is more than one value of AVISITN for a given value of AVISIT",FALSE,Cross-record; grouping variable adds a partition beyond the key.,PR REVIEW,Maximo,https://github.com/verisianHQ/core-contributor/pull/786,
AD0110,,Group-qualified one-to-one mapping,1.0,BDS,AVISIT,"Within a given value of PARAMCD, there is more than one value of AVISIT for a given value of AVISITN",FALSE,Cross-record; grouping variable adds a partition beyond the key.,PR REVIEW,Maximo,https://github.com/verisianHQ/core-contributor/pull/786,
AD0111,,Conditional metadata companion existence,"1.0, 1.1, 1.2, 1.3",BDS;MDBDS,,ARELTM is present and ARELTMU is not present,TRUE,"""Variable-metadata check; fixtures need column definitions, not populated records.""",PR REVIEW,Enrico,https://github.com/verisianHQ/core-contributor/pull/755,
AD0112,,Same-record paired population,"1.0, 1.1, 1.2, 1.3",BDS;MDBDS,ARELTMU,ARELTM is populated and ARELTMU is not populated,TRUE,Record data; wildcard/index captures often required. Includes reciprocal pairs as separate Rule IDs. **144/144 implemented.**,PR REVIEW,Richard,https://github.com/verisianHQ/core-contributor/pull/762,
AD0113,,Conditional metadata companion existence,"1.0, 1.1, 1.2, 1.3",BDS;MDBDS,,ARELTMU is present and ARELTM is not present,TRUE,"""Variable-metadata check; fixtures need column definitions, not populated records.""",PR REVIEW,Enrico,https://github.com/verisianHQ/core-contributor/pull/755,
AD0117,,Group-qualified one-to-one mapping,"1.0, 1.2, 1.3",BDS;MDBDS,ATPT,"Within a given value of PARAMCD, there is more than one value of ATPT for a given value of ATPTN",TRUE,Cross-record; grouping variable adds a partition beyond the key.,PR REVIEW,Maximo,https://github.com/verisianHQ/core-contributor/pull/786,
AD0118,,Group-qualified one-to-one mapping,"1.0, 1.2, 1.3",BDS;MDBDS,ATPTN,"Within a given value of PARAMCD, there is more than one value of ATPTN for a given value of ATPT",TRUE,Cross-record; grouping variable adds a partition beyond the key.,PR REVIEW,Maximo,https://github.com/verisianHQ/core-contributor/pull/786,
AD0121,,Paired suffix ordering,"1.0, 1.1, 1.2, 1.3",ALL,*SDT,"The value of a variable with a suffix of SDT is greater than the value of a variable with the same root and a suffix of EDT, considering only rows on which both variables are populated",TRUE,Same-record comparison with same-root suffix substitution.,,,,
AD0122,,Paired suffix ordering,"1.0, 1.1, 1.2, 1.3",ALL,*SDTM,"The value of a variable with a suffix of SDTM is greater than the value of a variable with the same root and a suffix of EDTM, considering only rows on which both variables are populated",TRUE,Same-record comparison with same-root suffix substitution.,PR REVIEW,,,
AD0123,,Unconditional one-to-one mapping consistency,"1.0, 1.1",BDS,PARAMTYP,There is more than one value of PARAMTYP for a given value of PARAMCD,TRUE,Cross-record dataset consistency without a both-populated prefilter.,PR REVIEW,Maximo,https://github.com/verisianHQ/core-contributor/pull/772,
AD0124,,Unconditional one-to-one mapping consistency,"1.0, 1.1, 1.2, 1.3",BDS;MDBDS,"PARCATy where y is an integer [1-9, not zero-padded]; PARCATy where y is an integer [1-99, not zero-padded]",There is more than one value of PARCATy for a given value of PARAMCD,TRUE,Cross-record dataset consistency without a both-populated prefilter.,PR REVIEW,Maximo,https://github.com/verisianHQ/core-contributor/pull/772,
AD0125,,Unconditional one-to-one mapping consistency,1.0,BDS,"PARCATy where y is an integer [1-9, not zero-padded]",There is more than one value of PARCATy for a given value of PARCATyN,FALSE,Cross-record dataset consistency without a both-populated prefilter.,PR REVIEW,Maximo,https://github.com/verisianHQ/core-contributor/pull/772,
AD0126,,Unconditional one-to-one mapping consistency,1.0,BDS,"PARCATyN where y is an integer [1-9, not zero-padded]",There is more than one value of PARCATyN for a given value of PARCATy,FALSE,Cross-record dataset consistency without a both-populated prefilter.,PR REVIEW,Maximo,https://github.com/verisianHQ/core-contributor/pull/772,
AD0127,,At least one selected record,"1.0, 1.1, 1.2, 1.3",BDS,ABLFL,"Within a given value of PARAMCD for a subject, BASE is populated and there is not at least one record with ABLFL equal to Y",TRUE,Cross-record existential check.,,,,
AD0128,,At least one selected record,"1.0, 1.1, 1.2, 1.3",BDS,ABLFL,"Within a given value of PARAMCD for a subject, BASEC is populated and there is not at least one record with ABLFL equal to Y",TRUE,Cross-record existential check.,,,,
AD0129,,Subject-qualified mapping,1.0,BDS,BASE,"Within a given value of PARAMCD for a subject, there is more than one value of BASE for a given value of BASEC",TRUE,Cross-record subject partition.,,,,
AD0130,,Subject-qualified mapping,1.0,BDS,BASEC,"Within a given value of PARAMCD for a subject, there is more than one value of BASEC for a given value of BASE",TRUE,Cross-record subject partition.,,,,
AD0131,,,"1.0, 1.2",BDS,BASETYPE,"Within a given value of PARAMCD, BASETYPE is populated for at least one record and is not populated for at least one record",TRUE,,PR REVIEW,Richard,https://github.com/verisianHQ/core-contributor/pull/798,
AD0132,,Record arithmetic ratio,"1.0, 1.1, 1.2, 1.3",BDS;MDBDS,R2BASE,R2BASE is not equal to AVAL divided by BASE,TRUE,Same-record arithmetic; include zero/missing denominator fixtures as applicable.,WORKING ON,Maximo,,
AD0133,,Record arithmetic ratio,"1.0, 1.1, 1.2, 1.3",BDS;MDBDS,"R2AyLO where y is an integer [1-9, not zero-padded]; R2AyLO where y is an integer [1-99, not zero-padded]",R2AyLO is not equal to AVAL divided by AyLO,TRUE,Same-record arithmetic; include zero/missing denominator fixtures as applicable.,WORKING ON,Maximo,,
AD0134,,Record arithmetic ratio,"1.0, 1.1, 1.2, 1.3",BDS;MDBDS,"R2AyHI where y is an integer [1-9, not zero-padded]; R2AyHI where y is an integer [1-99, not zero-padded]",R2AyHI is not equal to AVAL divided by AyHI,TRUE,Same-record arithmetic; include zero/missing denominator fixtures as applicable.,WORKING ON,Maximo,,
AD0135,,Group-qualified one-to-one mapping,1.0,BDS,"SHIFTy where y is an integer [1-9, not zero-padded]","Within a given value of PARAMCD, there is more than one value of SHIFTy for a given value of SHIFTyN",TRUE,Cross-record; grouping variable adds a partition beyond the key.,PR REVIEW,Maximo,https://github.com/verisianHQ/core-contributor/pull/786,
AD0136,,Group-qualified one-to-one mapping,1.0,BDS,"SHIFTyN where y is an integer [1-9, not zero-padded]","Within a given value of PARAMCD, there is more than one value of SHIFTyN for a given value of SHIFTy",TRUE,Cross-record; grouping variable adds a partition beyond the key.,PR REVIEW,Maximo,https://github.com/verisianHQ/core-contributor/pull/786,
AD0137,,Same-record paired population,"1.0, 1.1, 1.2, 1.3",BDS;MDBDS,"CRITy where y is an integer [1-9, not zero-padded]; CRITy where y is an integer [1-99, not zero-padded]",CRITyFL is populated and CRITy is not populated,FALSE,Record data; wildcard/index captures often required. Includes reciprocal pairs as separate Rule IDs. **144/144 implemented.**,PR REVIEW,Richard,https://github.com/verisianHQ/core-contributor/pull/762,
AD0141,,Unconditional one-to-one mapping consistency,1.0,BDS,PARAM,There is more than one value of PARAM for a given value of PARAMCD,FALSE,Cross-record dataset consistency without a both-populated prefilter.,PR REVIEW,Maximo,https://github.com/verisianHQ/core-contributor/pull/772,
AD0142,,Unconditional one-to-one mapping consistency,1.0,BDS,PARAMCD,There is more than one value of PARAMCD for a given value of PARAM,TRUE,Cross-record dataset consistency without a both-populated prefilter.,PR REVIEW,Maximo,https://github.com/verisianHQ/core-contributor/pull/772,
AD0143,,,"1.0, 1.1, 1.2, 1.3",BDS;MDBDS,PARAMCD,PARAMCD has more than 8 characters in length,TRUE,,PR REVIEW,Richard,https://github.com/verisianHQ/core-contributor/pull/798,
AD0144,,,"1.0, 1.1, 1.2, 1.3",BDS;MDBDS,PARAMCD,PARAMCD starts with a character other than a letter,TRUE,,PR REVIEW,Richard,https://github.com/verisianHQ/core-contributor/pull/798,
AD0145,,,"1.0, 1.1, 1.2, 1.3",BDS;MDBDS,PARAMCD,"PARAMCD has characters that are not letters, digits, and underscores",TRUE,,PR REVIEW,Richard,https://github.com/verisianHQ/core-contributor/pull/798,
AD0146,,Dataset-qualified unconditional mapping,1.0,BDS,PARAM,"Within a dataset, there is more than one value of PARAM for a given value of PARAMN",TRUE,Dataset-wide cross-record mapping.,,,,
AD0147,,Dataset-qualified unconditional mapping,1.0,BDS,PARAMN,"Within a dataset, there is more than one value of PARAMN for a given value of PARAM",TRUE,Dataset-wide cross-record mapping.,,,,
AD0148,,,1.0,BDS,PARAMN,PARAMN is not an integer,TRUE,,PR REVIEW,Richard,https://github.com/verisianHQ/core-contributor/pull/798,
AD0149,,Group-qualified one-to-one mapping,1.0,BDS,AVALC,"Within a given value of PARAMCD, there is more than one value of AVALC for a given value of AVAL",TRUE,Cross-record; grouping variable adds a partition beyond the key.,PR REVIEW,Maximo,https://github.com/verisianHQ/core-contributor/pull/786,
AD0150,,Group-qualified one-to-one mapping,1.0,BDS,AVAL,"Within a given value of PARAMCD, there is more than one value of AVAL for a given value of AVALC",TRUE,Cross-record; grouping variable adds a partition beyond the key.,PR REVIEW,Maximo,https://github.com/verisianHQ/core-contributor/pull/786,
AD0151,,Unconditional grouped uniqueness,"1.0, 1.1, 1.2, 1.3",BDS;MDBDS,"CRITy where y is an integer [1-9, not zero-padded]; CRITy where y is an integer [1-99, not zero-padded]","Within a given value of PARAMCD, there is more than one value of CRITy",TRUE,"Cross-record uniqueness, not functional mapping between two populated variables.",,,,
AD0152,,Subject selected-record derivation,"1.0, 1.1, 1.2",BDS,BASE,"BASETYPE is present, BASE is populated, and BASE is not equal to AVAL where ABLFL is equal to Y for a given value of PARAMCD and BASETYPE for a subject",TRUE,Cross-record subject derivation.,,,,
AD0154,,,"1.0, 1.1, 1.2, 1.3",BDS,ABLFL,"Within a given PARAMCD and BASETYPE for a subject, more than one record has ABLFL equal to Y",TRUE,,PR REVIEW,Richard,https://github.com/verisianHQ/core-contributor/pull/798,
AD0155,,,"1.0, 1.1, 1.2, 1.3",BDS,ABLFL,"Within a given PARAMCD for a subject, more than one record has ABLFL equal to Y and BASETYPE is not present",TRUE,,PR REVIEW,Richard,https://github.com/verisianHQ/core-contributor/pull/798,
AD0156,,CRIT flag requires CRIT root,1.0,BDS,"CRITyFL where y is an integer [1-9, not zero-padded]","A variable with a prefix of CRIT, a suffix of FL and containing a one-digit number (CRITyFL) is present and a variable with the same root without a suffix of FL (CRITy) is not present",FALSE,Metadata; one-digit versus one/two-digit index fixture difference.,,,,
AD0157,,,"1.0, 1.1, 1.2, 1.3",BDS;MDBDS,"CRITy where y is an integer [1-9, not zero-padded]; CRITy where y is an integer [1-99, not zero-padded]",A variable with a prefix of CRIT and a suffix of a one-digit number (CRITy) is present and a variable with the same root with a suffix of FL (CRITyFL) is not present,TRUE,,PR REVIEW,Richard,https://github.com/verisianHQ/core-contributor/pull/798,
AD0159,,Same-record paired population,"1.0, 1.1, 1.2, 1.3",BDS;MDBDS,AWTARGET,AWTDIFF is populated and AWTARGET is not populated,TRUE,Record data; wildcard/index captures often required. Includes reciprocal pairs as separate Rule IDs. **144/144 implemented.**,PR REVIEW,Richard,https://github.com/verisianHQ/core-contributor/pull/762,
AD0160,,,"1.0, 1.1",BDS,AWU,AWU is present and both AWLO and AWHI are not present,TRUE,,PR REVIEW,Richard,https://github.com/verisianHQ/core-contributor/pull/798,
AD0163,,Conditional metadata companion existence,"1.0, 1.1, 1.2, 1.3",BDS;MDBDS,BTOXGR,BTOXGR is present and ATOXGR is not present,FALSE,"""Variable-metadata check; fixtures need column definitions, not populated records.""",PR REVIEW,Enrico,https://github.com/verisianHQ/core-contributor/pull/755,
AD0164,,Conditional metadata companion existence,"1.0, 1.1, 1.2, 1.3",BDS;MDBDS,BTOXGR,BTOXGR is present and ABLFL is not present,FALSE,"""Variable-metadata check; fixtures need column definitions, not populated records.""",PR REVIEW,Enrico,https://github.com/verisianHQ/core-contributor/pull/755,
AD0165,,Selected-record derivation,"1.0, 1.1, 1.2",BDS,BTOXGR,"BASETYPE is present, BTOXGR is populated, and BTOXGR is not equal to ATOXGR where ABLFL is equal to Y for a given value of PARAMCD and BASETYPE",TRUE,Cross-record derivation without subject qualifier.,,,,
AD0166,,Conditional metadata companion existence,"1.0, 1.1, 1.2, 1.3",BDS;MDBDS,BNRIND,BNRIND is present and ANRIND is not present,TRUE,"""Variable-metadata check; fixtures need column definitions, not populated records.""",PR REVIEW,Enrico,https://github.com/verisianHQ/core-contributor/pull/755,
AD0167,,Conditional metadata companion existence,"1.0, 1.1, 1.2, 1.3",BDS;MDBDS,BNRIND,BNRIND is present and ABLFL is not present,TRUE,"""Variable-metadata check; fixtures need column definitions, not populated records.""",PR REVIEW,Enrico,https://github.com/verisianHQ/core-contributor/pull/755,
AD0168,,Selected-record derivation,"1.0, 1.1, 1.2",BDS,BNRIND,"BASETYPE is present, BNRIND is populated, and BNRIND is not equal to ANRIND where ABLFL is equal to Y for a given value of PARAMCD and BASETYPE",TRUE,Cross-record derivation without subject qualifier.,PR REVIEW,,,
AD0169,,,"1.0, 1.1, 1.2, 1.3",BDS;MDBDS,CNSR,The value of CNSR is not a positive integer or 0,TRUE,,PR REVIEW,Richard,https://github.com/verisianHQ/core-contributor/pull/798,
AD0176,,Character flag values Y/null,"1.0, 1.1",BDS,ABLFL,ABLFL is not equal to Y or null,TRUE,Record-value controlled set.,PR REVIEW,Enrico,https://github.com/verisianHQ/core-contributor/pull/796,
AD0178,,Character flag values Y/null,"1.0, 1.1",BDS;OCCDS,"ANLzzFL where zz is an integer [01-99, zero-padded]",ANLzzFL is not equal to Y or null where zz is a zero-padded two-digit integer [01-99],TRUE,Record-value controlled set.,PR REVIEW,Enrico,https://github.com/verisianHQ/core-contributor/pull/796,
AD0180,,,1.0,BDS,SRCDOM,SRCDOM has a value that is not an SDTM domain name or null,TRUE,,,,,
AD0181,,Subject fallback derivation,"1.0, 1.1, 1.2, 1.3",BDS,BASE,"BASETYPE is not present, BASE is populated, and BASE is not equal to AVAL where ABLFL is equal to Y for a given value of PARAMCD for a subject",TRUE,Cross-record subject derivation.,,,,
AD0182,,Subject fallback derivation,"1.0, 1.1, 1.2, 1.3",BDS,BTOXGR,"BASETYPE is not present, BTOXGR is populated, and BTOXGR is not equal to ATOXGR where ABLFL is equal to Y for a given value of PARAMCD for a subject",TRUE,Cross-record subject derivation.,PR REVIEW,,https://github.com/verisianHQ/core-contributor/pull/796,
AD0183,,Subject fallback derivation,"1.0, 1.1, 1.2, 1.3",BDS,BNRIND,"BASETYPE is not present, BNRIND is populated, and BNRIND is not equal to ANRIND where ABLFL is equal to Y for a given value of PARAMCD for a subject",TRUE,Cross-record subject derivation.,PR REVIEW,,https://github.com/verisianHQ/core-contributor/pull/796,
AD0194,,Unconditional required metadata variables,"1.0, 1.1, 1.2, 1.3",BDS;MDBDS,PARAM,PARAM is not present,TRUE,Variable metadata; unconditional within the applicable class/domain.,PR REVIEW,Enrico,https://github.com/verisianHQ/core-contributor/pull/709,
AD0195,,Unconditional required metadata variables,"1.0, 1.1, 1.2, 1.3",BDS;MDBDS,PARAMCD,PARAMCD is not present,TRUE,Variable metadata; unconditional within the applicable class/domain.,PR REVIEW,Enrico,https://github.com/verisianHQ/core-contributor/pull/709,
AD0196,,Unconditional record population,"1.0, 1.1, 1.2, 1.3",BDS;MDBDS,PARAM,PARAM is not populated,TRUE,"Record data, unconditional.",,,,
AD0197,,Unconditional record population,"1.0, 1.1, 1.2, 1.3",BDS;MDBDS,PARAMCD,PARAMCD is not populated,TRUE,"Record data, unconditional.",,,,
AD0198,,,"1.0, 1.1, 1.2, 1.3",BDS;MDBDS,,AVAL is not present and AVALC is not present,TRUE,,PR REVIEW,Richard,https://github.com/verisianHQ/core-contributor/pull/709,
AD0199,,Cross-source data-type equality,"1.0, 1.1, 1.2, 1.3",ALL,ALL,A variable is present in ADaM with the same name as a variable present in SDTM but the variables do not have identical data types,TRUE,"Cross-metadata comparison against SDTM, ADaM IG, or ADSL.",PR REVIEW,,https://github.com/verisianHQ/core-contributor/pull/709,
AD0200,,Cross-source data-type equality,"1.0, 1.1, 1.2, 1.3",ALL,ALL,A variable is present in ADaM with the same name as a variable defined in the ADaM IG but the variables do not have identical data types,TRUE,"Cross-metadata comparison against SDTM, ADaM IG, or ADSL.",,,,
AD0201,,Conditional metadata companion existence,"1.0, 1.1, 1.2, 1.3",BDS;MDBDS,"TRTAGy where y is an integer [1-9, not zero-padded]; TRTAGy where y is an integer [1-99, not zero-padded]",TRTAGyN is present and TRTAGy is not present,TRUE,"""Variable-metadata check; fixtures need column definitions, not populated records.""",PR REVIEW,Enrico,https://github.com/verisianHQ/core-contributor/pull/755,
AD0204,,Cross-dataset record value equality,"1.0, 1.1, 1.2, 1.3",ADSL,AGE,The value of ADSL.USUBJID is equal to the value of DM.USUBJID and ADSL.AGE is not equal to DM.AGE,TRUE,Cross-dataset record comparison; fixtures need matching and nonmatching keys.,PR REVIEW,Maximo,https://github.com/verisianHQ/core-contributor/pull/748,
AD0205,,Cross-dataset record value equality,"1.0, 1.1, 1.2, 1.3",ADSL,AGEU,The value of ADSL.USUBJID is equal to the value of DM.USUBJID and ADSL.AGEU is not equal to DM.AGEU,FALSE,Cross-dataset record comparison; fixtures need matching and nonmatching keys.,PR REVIEW,Maximo,https://github.com/verisianHQ/core-contributor/pull/748,
AD0206,,Cross-dataset record value equality,"1.0, 1.1, 1.2, 1.3",ADSL,SEX,The value of ADSL.USUBJID is equal to the value of DM.USUBJID and ADSL.SEX is not equal to DM.SEX,FALSE,Cross-dataset record comparison; fixtures need matching and nonmatching keys.,PR REVIEW,Maximo,https://github.com/verisianHQ/core-contributor/pull/748,
AD0207,,Cross-dataset record value equality,"1.0, 1.1, 1.2, 1.3",ADSL,RACE,The value of ADSL.USUBJID is equal to the value of DM.USUBJID and ADSL.RACE is not equal to DM.RACE,TRUE,Cross-dataset record comparison; fixtures need matching and nonmatching keys.,PR REVIEW,Maximo,https://github.com/verisianHQ/core-contributor/pull/755,
AD0208,,Cross-dataset record value equality,"1.0, 1.1, 1.2, 1.3",ADSL,SUBJID,The value of ADSL.USUBJID is equal to the value of DM.USUBJID and ADSL.SUBJID is not equal to DM.SUBJID,TRUE,Cross-dataset record comparison; fixtures need matching and nonmatching keys.,PR REVIEW,Maximo,https://github.com/verisianHQ/core-contributor/pull/748,
AD0209,,Cross-dataset record value equality,"1.0, 1.1, 1.2, 1.3",ADSL,SITEID,The value of ADSL.USUBJID is equal to the value of DM.USUBJID and ADSL.SITEID is not equal to DM.SITEID,TRUE,Cross-dataset record comparison; fixtures need matching and nonmatching keys.,PR REVIEW,Maximo,https://github.com/verisianHQ/core-contributor/pull/748,
AD0210,,Cross-dataset record value equality,"1.0, 1.1, 1.2, 1.3",ADSL,ARM,The value of ADSL.USUBJID is equal to the value of DM.USUBJID and ADSL.ARM is not equal to DM.ARM,TRUE,Cross-dataset record comparison; fixtures need matching and nonmatching keys.,PR REVIEW,Maximo,https://github.com/verisianHQ/core-contributor/pull/748,
AD0211,,Numeric flag 1/null,"1.0, 1.1, 1.2, 1.3",BDS;MDBDS,ABLFN,ABLFN is not equal to 1 or null,TRUE,Record-value controlled set.,,,,
AD0212,,Numeric flag 1/null,"1.0, 1.1, 1.2, 1.3",BDS;MDBDS,"ANLzzFN where zz is an integer [01-99, zero-padded]",ANLzzFN is not equal to 1 or null where zz is a zero-padded two-digit integer [01-99],TRUE,Record-value controlled set.,,,,
AD0221,,Condition-scoped mapping,1.0,BDS,"AVALCATy where y is an integer [1-9, not zero-padded]","Within a given value of PARAMCD, there is more than one value of AVALCATy for a given value of AVAL",TRUE,Cross-record; fixtures require separate condition strata.,PR REVIEW,Maximo,https://github.com/verisianHQ/core-contributor/pull/787,
AD0222,,Condition-scoped mapping,1.0,BDS,"BASECATy where y is an integer [1-9, not zero-padded]","Within a given value of PARAMCD, there is more than one value of BASECATy for a given value of BASE and y",TRUE,Cross-record; fixtures require separate condition strata.,PR REVIEW,Maximo,https://github.com/verisianHQ/core-contributor/pull/787,
AD0223,,,"1.0, 1.1, 1.2, 1.3",BDS,CHG,"Within a given value of PARAMCD for a subject, CHG is populated and is not equal to AVAL - BASE",TRUE,,,,,
AD0224,,Condition-scoped mapping,1.0,BDS,"CHGCATy where y is an integer [1-9, not zero-padded]","Within a given value of PARAMCD, there is more than one value of CHGCATy for a given value of CHG and y",FALSE,Cross-record; fixtures require separate condition strata.,PR REVIEW,Maximo,https://github.com/verisianHQ/core-contributor/pull/787,
AD0225,,,"1.0, 1.1, 1.2, 1.3",BDS,PCHG,"Within a given value of PARAMCD for a subject, PCHG is populated and is not equal to ((AVAL - BASE)/BASE)*100",TRUE,,,,,
AD0226,,Condition-scoped mapping,1.0,BDS,"PCHGCATy where y is an integer [1-9, not zero-padded]","Within a given value of PARAMCD, there is more than one value of PCHGCATy for a given value of PCHG and y",TRUE,Cross-record; fixtures require separate condition strata.,PR REVIEW,Maximo,https://github.com/verisianHQ/core-contributor/pull/787,
AD0227,,Unconditional one-to-one mapping consistency,1.0,ADSL,TRTSEQP,There is more than one value of TRTSEQP for a given value of TRTSEQPN,TRUE,Cross-record dataset consistency without a both-populated prefilter.,PR REVIEW,Maximo,https://github.com/verisianHQ/core-contributor/pull/772,
AD0228,,Unconditional one-to-one mapping consistency,1.0,ADSL,TRTSEQPN,There is more than one value of TRTSEQPN for a given value of TRTSEQP,TRUE,Cross-record dataset consistency without a both-populated prefilter.,PR REVIEW,Maximo,https://github.com/verisianHQ/core-contributor/pull/772,
AD0229,,Unconditional one-to-one mapping consistency,1.0,ADSL,TRTSEQA,There is more than one value of TRTSEQA for a given value of TRTSEQAN,TRUE,Cross-record dataset consistency without a both-populated prefilter.,PR REVIEW,Maximo,https://github.com/verisianHQ/core-contributor/pull/772,
AD0230,,Unconditional one-to-one mapping consistency,1.0,ADSL,TRTSEQAN,There is more than one value of TRTSEQAN for a given value of TRTSEQA,TRUE,Cross-record dataset consistency without a both-populated prefilter.,PR REVIEW,Maximo,https://github.com/verisianHQ/core-contributor/pull/772,
AD0231,,Unconditional grouped uniqueness,1.0,ADSL,"TRxxPGy where xx is an integer [01-99, zero-padded] and y is an integer [1-9, not zero-padded]","Within a given value of TRTxxP, there is more than one value of TRxxPGy, where xx is an integer [01-99, zero-padded] and y is a single-digit integer [1-9]",TRUE,"Cross-record uniqueness, not functional mapping between two populated variables.",,,,
AD0232,,Unconditional one-to-one mapping consistency,1.0,ADSL,"TRxxPGy where xx is an integer [01-99, zero-padded] and y is an integer [1-9, not zero-padded]","There is more than one value of TRxxPGy for a given value of TRxxPGyN, where xx is an integer [01-99, zero-padded] and y is a single-digit integer [1-9]",TRUE,Cross-record dataset consistency without a both-populated prefilter.,PR REVIEW,Maximo,https://github.com/verisianHQ/core-contributor/pull/772,
AD0233,,Unconditional one-to-one mapping consistency,1.0,ADSL,"TRxxPGyN where xx is an integer [01-99, zero-padded] and y is an integer [1-9, not zero-padded]","There is more than one value of TRxxPGyN for a given value of TRxxPGy, where xx is an integer [01-99, zero-padded] and y is a single-digit integer [1-9]",TRUE,Cross-record dataset consistency without a both-populated prefilter.,PR REVIEW,Maximo,https://github.com/verisianHQ/core-contributor/pull/772,
AD0234,,Unconditional grouped uniqueness,1.0,ADSL,"TRxxAGy where xx is an integer [01-99, zero-padded] and y is an integer [1-9, not zero-padded]","Within a given value of TRTxxA, there is more than one value of TRxxAGy, where xx is an integer [01-99, zero-padded] and y is a single-digit integer [1-9]",TRUE,"Cross-record uniqueness, not functional mapping between two populated variables.",,,,
AD0235,,Unconditional one-to-one mapping consistency,1.0,ADSL,"TRxxAGy where xx is an integer [01-99, zero-padded] and y is an integer [1-9, not zero-padded]","There is more than one value of TRxxAGy for a given value of TRxxAGyN, where xx is an integer [01-99, zero-padded] and y is a single-digit integer [1-9]",FALSE,Cross-record dataset consistency without a both-populated prefilter.,PR REVIEW,Maximo,https://github.com/verisianHQ/core-contributor/pull/772,
AD0236,,Unconditional one-to-one mapping consistency,1.0,ADSL,"TRxxAGyN where xx is an integer [01-99, zero-padded] and y is an integer [1-9, not zero-padded]","There is more than one value of TRxxAGyN for a given value of TRxxAGy, where xx is an integer [01-99, zero-padded] and y is a single-digit integer [1-9]",TRUE,Cross-record dataset consistency without a both-populated prefilter.,PR REVIEW,Maximo,https://github.com/verisianHQ/core-contributor/pull/772,
AD0237,,Unconditional one-to-one mapping consistency,1.0,BDS,"TRTPGy where y is an integer [1-9, not zero-padded]","There is more than one value of TRTPGy for a given value of TRTPGyN, where y is a single-digit integer [1-9]",TRUE,Cross-record dataset consistency without a both-populated prefilter.,PR REVIEW,Maximo,https://github.com/verisianHQ/core-contributor/pull/772,
AD0238,,Unconditional one-to-one mapping consistency,1.0,BDS,"TRTPGyN where y is an integer [1-9, not zero-padded]","There is more than one value of TRTPGyN for a given value of TRTPGy, where y is a single-digit integer [1-9]",FALSE,Cross-record dataset consistency without a both-populated prefilter.,PR REVIEW,Maximo,https://github.com/verisianHQ/core-contributor/pull/772,
AD0239,,Conditional metadata companion existence,1.0,BDS,"TRTPGy where y is an integer [1-9, not zero-padded]","TRTPGy is present and TRTA is present but TRTAGy is not present, where y is a single-digit integer [1-9]",TRUE,"""Variable-metadata check; fixtures need column definitions, not populated records.""",PR REVIEW,Enrico,https://github.com/verisianHQ/core-contributor/pull/755,
AD0240,,Unconditional one-to-one mapping consistency,1.0,BDS,"TRTAGy where y is an integer [1-9, not zero-padded]","There is more than one value of TRTAGy for a given value of TRTAGyN, where y is a single-digit integer [1-9]",TRUE,Cross-record dataset consistency without a both-populated prefilter.,PR REVIEW,Maximo,https://github.com/verisianHQ/core-contributor/pull/772,
AD0241,,Unconditional one-to-one mapping consistency,1.0,BDS,"TRTAGyN where y is an integer [1-9, not zero-padded]","There is more than one value of TRTAGyN for a given value of TRTAGy, where y is a single-digit integer [1-9]",TRUE,Cross-record dataset consistency without a both-populated prefilter.,PR REVIEW,Maximo,https://github.com/verisianHQ/core-contributor/pull/772,
AD0242,,Unconditional one-to-one mapping consistency,1.0,ADSL,"TRTxxAN where xx is an integer [01-99, zero-padded]","There is more than one value of TRTxxAN for a given value of TRTxxA, where xx is an integer [01-99, zero-padded]",TRUE,Cross-record dataset consistency without a both-populated prefilter.,PR REVIEW,Maximo,https://github.com/verisianHQ/core-contributor/pull/772,
AD0243,,Unconditional one-to-one mapping consistency,1.0,ADSL,"TRTxxA where xx is an integer [01-99, zero-padded]","There is more than one value of TRTxxA for a given value of TRTxxAN, where xx is an integer [01-99, zero-padded]",TRUE,Cross-record dataset consistency without a both-populated prefilter.,WORKING ON,Maximo,,
AD0252,,,"1.0, 1.1, 1.2, 1.3",OCCDS;MDODDS,AVAL; AVALC,AVAL is present or AVALC is present,TRUE,,,,,
AD0254,,Forbidden metadata variables,"1.0, 1.1, 1.2, 1.3",OCCDS;MDODDS,PARAM,PARAM is present,TRUE,Unconditional metadata prohibition.,,,,
AD0256,,,"1.0, 1.1, 1.2, 1.3",ALL,,The values of USUBJID are not present in ADSL,TRUE,,PR REVIEW,Richard,https://github.com/verisianHQ/core-contributor/pull/798,
AD0261,,Unconditional required metadata variables,"1.0, 1.1, 1.2, 1.3",OCCDS,,AEDECOD is not present,TRUE,Variable metadata; unconditional within the applicable class/domain.,PR REVIEW,Enrico,https://github.com/verisianHQ/core-contributor/pull/709,
AD0262,,Unconditional required metadata variables,"1.0, 1.1, 1.2, 1.3",OCCDS,,AEBODSYS is not present,TRUE,Variable metadata; unconditional within the applicable class/domain.,PR REVIEW,Enrico,https://github.com/verisianHQ/core-contributor/pull/709,
AD0268,,Same-record paired population,"1.0, 1.1, 1.2, 1.3",OCCDS;MDODDS,ADURU,ADURN is populated and ADURU is not populated,FALSE,Record data; wildcard/index captures often required. Includes reciprocal pairs as separate Rule IDs. **144/144 implemented.**,PR REVIEW,Richard,https://github.com/verisianHQ/core-contributor/pull/762,
AD0269,,Character flag values Y/null,"1.0, 1.1, 1.2, 1.3",OCCDS;MDODDS,TRTEMFL,TRTEMFL is not equal to Y or null,TRUE,Record-value controlled set.,PR REVIEW,Enrico,https://github.com/verisianHQ/core-contributor/pull/796,
AD0270,,Character flag values Y/null,"1.0, 1.1, 1.2, 1.3",OCCDS;MDODDS,PREFL,PREFL is not equal to Y or null,TRUE,Record-value controlled set.,PR REVIEW,Enrico,https://github.com/verisianHQ/core-contributor/pull/796,
AD0271,,Character flag values Y/null,"1.0, 1.1, 1.2, 1.3",OCCDS;MDODDS,FUPFL,FUPFL is not equal to Y or null,TRUE,Record-value controlled set.,PR REVIEW,Enrico,https://github.com/verisianHQ/core-contributor/pull/796,
AD0272,,Character flag values Y/null,"1.0, 1.1, 1.2, 1.3",OCCDS;MDODDS,"AOCCzzFL where zz is an integer [01-99, zero-padded]",A variable with a prefix of AOCC and a suffix of FL is not equal to Y or null,FALSE,Record-value controlled set.,PR REVIEW,Enrico,https://github.com/verisianHQ/core-contributor/pull/796,
AD0278,,Unconditional required metadata variables,"1.0, 1.1, 1.2, 1.3",OCCDS,,AESER is not present,FALSE,Variable metadata; unconditional within the applicable class/domain.,PR REVIEW,Enrico,https://github.com/verisianHQ/core-contributor/pull/709,
AD0279,,Occurrence ordinal controlled values,"1.0, 1.1, 1.2, 1.3",OCCDS;MDODDS,AESEVN,"AESEVN is not equal to 1, 2, 3, or null",TRUE,Record controlled values.,PR REVIEW,,https://github.com/verisianHQ/core-contributor/pull/709,
AD0280,,Unconditional one-to-one mapping consistency,1.0,OCCDS,AESEV,There is more than one value of AESEV for a given value of AESEVN,TRUE,Cross-record dataset consistency without a both-populated prefilter.,PR REVIEW,Maximo,https://github.com/verisianHQ/core-contributor/pull/709,
AD0281,,Unconditional one-to-one mapping consistency,1.0,OCCDS,AESEVN,There is more than one value of AESEVN for a given value of AESEV,TRUE,Cross-record dataset consistency without a both-populated prefilter.,PR REVIEW,Maximo,https://github.com/verisianHQ/core-contributor/pull/772,
AD0282,,Occurrence ordinal controlled values,"1.0, 1.1, 1.2, 1.3",OCCDS;MDODDS,ASEVN,"ASEVN is not equal to 1, 2, 3, or null",TRUE,Record controlled values.,PR REVIEW,,https://github.com/verisianHQ/core-contributor/pull/796,
AD0283,,Unconditional one-to-one mapping consistency,1.0,OCCDS,ASEV,There is more than one value of ASEV for a given value of ASEVN,TRUE,Cross-record dataset consistency without a both-populated prefilter.,PR REVIEW,Maximo,https://github.com/verisianHQ/core-contributor/pull/796,
AD0284,,Unconditional one-to-one mapping consistency,1.0,OCCDS,ASEVN,There is more than one value of ASEVN for a given value of ASEV,TRUE,Cross-record dataset consistency without a both-populated prefilter.,PR REVIEW,Maximo,https://github.com/verisianHQ/core-contributor/pull/796,
AD0285,,Unconditional one-to-one mapping consistency,1.0,OCCDS,"SEVGRy where y is an integer [1-9, not zero-padded]",There is more than one value of SEVGRy for a given value of SEVGRyN,TRUE,Cross-record dataset consistency without a both-populated prefilter.,PR REVIEW,Maximo,https://github.com/verisianHQ/core-contributor/pull/796,
AD0286,,Unconditional one-to-one mapping consistency,1.0,OCCDS,"SEVGRyN where y is an integer [1-9, not zero-padded]",There is more than one value of SEVGRyN for a given value of SEVGRy,TRUE,Cross-record dataset consistency without a both-populated prefilter.,PR REVIEW,Maximo,https://github.com/verisianHQ/core-contributor/pull/709,
AD0287,,Unconditional one-to-one mapping consistency,1.0,OCCDS,AEREL,There is more than one value of AEREL for a given value of AERELN,TRUE,Cross-record dataset consistency without a both-populated prefilter.,PR REVIEW,Maximo,https://github.com/verisianHQ/core-contributor/pull/772,
AD0288,,Unconditional one-to-one mapping consistency,1.0,OCCDS,AERELN,There is more than one value of AERELN for a given value of AEREL,TRUE,Cross-record dataset consistency without a both-populated prefilter.,PR REVIEW,Maximo,https://github.com/verisianHQ/core-contributor/pull/772,
AD0289,,Unconditional one-to-one mapping consistency,1.0,OCCDS,AREL,There is more than one value of AREL for a given value of ARELN,TRUE,Cross-record dataset consistency without a both-populated prefilter.,PR REVIEW,Maximo,https://github.com/verisianHQ/core-contributor/pull/772,
AD0290,,Unconditional one-to-one mapping consistency,1.0,OCCDS,ARELN,There is more than one value of ARELN for a given value of AREL,TRUE,Cross-record dataset consistency without a both-populated prefilter.,PR REVIEW,Maximo,https://github.com/verisianHQ/core-contributor/pull/772,
AD0291,,Unconditional one-to-one mapping consistency,1.0,OCCDS,"RELGRy where y is an integer [1-9, not zero-padded]",There is more than one value of RELGRy for a given value of RELGRyN,TRUE,Cross-record dataset consistency without a both-populated prefilter.,PR REVIEW,Maximo,https://github.com/verisianHQ/core-contributor/pull/772,
AD0292,,Unconditional one-to-one mapping consistency,1.0,OCCDS,"RELGRyN where y is an integer [1-9, not zero-padded]",There is more than one value of RELGRyN for a given value of RELGRy,TRUE,Cross-record dataset consistency without a both-populated prefilter.,PR REVIEW,Maximo,https://github.com/verisianHQ/core-contributor/pull/772,
AD0293,,Unconditional one-to-one mapping consistency,1.0,OCCDS,AETOXGR,There is more than one value of AETOXGR for a given value of AETOXGRN,TRUE,Cross-record dataset consistency without a both-populated prefilter.,PR REVIEW,Maximo,https://github.com/verisianHQ/core-contributor/pull/772,
AD0294,,Unconditional one-to-one mapping consistency,1.0,OCCDS,AETOXGRN,There is more than one value of AETOXGRN for a given value of AETOXGR,TRUE,Cross-record dataset consistency without a both-populated prefilter.,PR REVIEW,Maximo,https://github.com/verisianHQ/core-contributor/pull/772,
AD0295,,Unconditional one-to-one mapping consistency,1.0,OCCDS,ATOXGR,There is more than one value of ATOXGR for a given value of ATOXGRN,TRUE,Cross-record dataset consistency without a both-populated prefilter.,PR REVIEW,Maximo,https://github.com/verisianHQ/core-contributor/pull/772,
AD0296,,Unconditional one-to-one mapping consistency,1.0,OCCDS,ATOXGRN,There is more than one value of ATOXGRN for a given value of ATOXGR,TRUE,Cross-record dataset consistency without a both-populated prefilter.,PR REVIEW,Maximo,https://github.com/verisianHQ/core-contributor/pull/772,
AD0297,,Unconditional one-to-one mapping consistency,1.0,OCCDS,"TOXGGRy where y is an integer [1-9, not zero-padded]",There is more than one value of TOXGGRy for a given value of TOXGGRyN,TRUE,Cross-record dataset consistency without a both-populated prefilter.,PR REVIEW,Maximo,https://github.com/verisianHQ/core-contributor/pull/772,
AD0298,,Unconditional one-to-one mapping consistency,1.0,OCCDS,"TOXGGRyN where y is an integer [1-9, not zero-padded]",There is more than one value of TOXGGRyN for a given value of TOXGGRy,TRUE,Cross-record dataset consistency without a both-populated prefilter.,PR REVIEW,Maximo,https://github.com/verisianHQ/core-contributor/pull/772,
AD0304,,Same-record paired population,"1.0, 1.1, 1.2, 1.3",OCCDS;MDODDS,"SMQzzCD where zz is an integer [01-99, zero-padded]",SMQzzNAM is populated and SMQzzCD is not populated,TRUE,Record data; wildcard/index captures often required. Includes reciprocal pairs as separate Rule IDs. **144/144 implemented.**,PR REVIEW,Richard,https://github.com/verisianHQ/core-contributor/pull/762,
AD0305,,Same-record paired population,"1.0, 1.1, 1.2, 1.3",OCCDS;MDODDS,"SMQzzSC where zz is an integer [01-99, zero-padded]",SMQzzNAM is populated and SMQzzSC is not populated,TRUE,Record data; wildcard/index captures often required. Includes reciprocal pairs as separate Rule IDs. **144/144 implemented.**,PR REVIEW,Richard,https://github.com/verisianHQ/core-contributor/pull/762,
AD0306,,Same-record paired population,"1.0, 1.1, 1.2, 1.3",OCCDS;MDODDS,"SMQzzNAM where zz is an integer [01-99, zero-padded]",SMQzzCD is populated and SMQzzNAM is not populated,TRUE,Record data; wildcard/index captures often required. Includes reciprocal pairs as separate Rule IDs. **144/144 implemented.**,PR REVIEW,Richard,https://github.com/verisianHQ/core-contributor/pull/762,
AD0307,,Same-record paired population,"1.0, 1.1, 1.2, 1.3",OCCDS;MDODDS,"SMQzzSC where zz is an integer [01-99, zero-padded]",SMQzzCD is populated and SMQzzSC is not populated,TRUE,Record data; wildcard/index captures often required. Includes reciprocal pairs as separate Rule IDs. **144/144 implemented.**,PR REVIEW,Richard,https://github.com/verisianHQ/core-contributor/pull/762,
AD0308,,Same-record paired population,"1.0, 1.1, 1.2, 1.3",OCCDS;MDODDS,"SMQzzNAM where zz is an integer [01-99, zero-padded]",SMQzzSC is populated and SMQzzNAM is not populated,TRUE,Record data; wildcard/index captures often required. Includes reciprocal pairs as separate Rule IDs. **144/144 implemented.**,PR REVIEW,Richard,https://github.com/verisianHQ/core-contributor/pull/762,
AD0309,,Same-record paired population,"1.0, 1.1, 1.2, 1.3",OCCDS;MDODDS,"SMQzzCD where zz is an integer [01-99, zero-padded]",SMQzzSC is populated and SMQzzCD is not populated,TRUE,Record data; wildcard/index captures often required. Includes reciprocal pairs as separate Rule IDs. **144/144 implemented.**,PR REVIEW,Richard,https://github.com/verisianHQ/core-contributor/pull/762,
AD0310,,Unconditional one-to-one mapping consistency,1.0,OCCDS,"SMQzzSC where zz is an integer [01-99, zero-padded]",There is more than one value of SMQzzSC for a given value of SMQzzSCN,TRUE,Cross-record dataset consistency without a both-populated prefilter.,PR REVIEW,Maximo,https://github.com/verisianHQ/core-contributor/pull/772,
AD0311,,Unconditional one-to-one mapping consistency,1.0,OCCDS,"SMQzzSCN where zz is an integer [01-99, zero-padded]",There is more than one value of SMQzzSCN for a given value of SMQzzSC,TRUE,Cross-record dataset consistency without a both-populated prefilter.,PR REVIEW,Maximo,https://github.com/verisianHQ/core-contributor/pull/772,
AD0312,,,"1.0, 1.1, 1.2, 1.3",OCCDS;MDODDS,"SMQzzSC where zz is an integer [01-99, zero-padded]","SMQzzSC is not equal to BROAD or NARROW, where zz is a zero-padded two-digit integer [01-99]",TRUE,,PR REVIEW,Richard,https://github.com/verisianHQ/core-contributor/pull/798,
AD0313,,,"1.0, 1.1, 1.2, 1.3",OCCDS;MDODDS,"SMQzzSCN where zz is an integer [01-99, zero-padded]","SMQzzSCN is not equal to 1 or 2, where zz is a zero-padded two-digit integer [01-99]",TRUE,,PR REVIEW,Richard,https://github.com/verisianHQ/core-contributor/pull/798,
AD0320,,,"1.0, 1.1, 1.2, 1.3",ADSL,,"A dataset is named ADSL and the dataset label is not ""Subject-Level Analysis Dataset""",TRUE,,PR REVIEW,Richard,https://github.com/verisianHQ/core-contributor/pull/798,
AD0321,,,"1.0, 1.1, 1.2, 1.3",ADSL,,"A dataset label is ""Subject-Level Analysis Dataset"" and the dataset is not named ADSL",TRUE,,PR REVIEW,Richard,https://github.com/verisianHQ/core-contributor/pull/798,
AD0322,,Unconditional grouped uniqueness,"1.1, 1.2, 1.3",BDS;OCCDS;MDBDS;MDODDS,"TRTPGy where y is an integer [1-99, not zero-padded]","Within a given value of TRTP, there is more than one value of TRTPGy, where y is an integer [1-99, not zero-padded]",TRUE,"Cross-record uniqueness, not functional mapping between two populated variables.",,,,
AD0323,,Study-wide conditional mapping,"1.1, 1.2, 1.3",BDS;OCCDS;MDBDS;MDODDS,APHASEN,"Within a study, there is more than one value of APHASEN for a given value of APHASE, considering only those rows on which both variables are populated",TRUE,Study-wide cross-record partition.,,,,
AD0324,,Study-wide conditional mapping,"1.1, 1.2, 1.3",BDS;OCCDS;MDBDS;MDODDS,APHASE,"Within a study, there is more than one value of APHASE for a given value of APHASEN, considering only those rows on which both variables are populated",TRUE,Study-wide cross-record partition.,,,,
AD0325,,Value-stratum conditional mapping,"1.1, 1.2, 1.3",BDS;OCCDS;MDBDS;MDODDS,ASPER,"Within a value of APERIOD, there is more than one value of ASPER for a given value of ASPERC, considering only those rows on which both variables are populated",TRUE,Cross-record stratified mapping.,,,,
AD0326,,Value-stratum conditional mapping,"1.1, 1.2, 1.3",BDS;OCCDS;MDBDS;MDODDS,ASPERC,"Within a value of APERIOD, there is more than one value of ASPERC for a given value of ASPER, considering only those rows on which both variables are populated",FALSE,Cross-record stratified mapping.,,,,
AD0327,,Parameter-qualified conditional mapping,"1.1, 1.2, 1.3",BDS;MDBDS,"AVALCATy where y is an integer [1-9, not zero-padded]","Within a parameter, there is more than one value of AVALCATy for a given value of AVALCAyN, considering only those rows on which both variables are populated",FALSE,Cross-record BDS-style check; fixtures need at least two parameters to prove partitioning.,PR REVIEW,Maximo,https://github.com/verisianHQ/core-contributor/pull/776,
AD0328,,Parameter-qualified conditional mapping,"1.1, 1.2, 1.3",BDS;MDBDS,"AVALCAyN where y is an integer [1-9, not zero-padded]","Within a parameter, there is more than one value of AVALCAyN for a given value of AVALCATy, considering only those rows on which both variables are populated",TRUE,Cross-record BDS-style check; fixtures need at least two parameters to prove partitioning.,PR REVIEW,Maximo,https://github.com/verisianHQ/core-contributor/pull/776,
AD0329,,Parameter-qualified conditional mapping,"1.1, 1.2, 1.3",BDS;MDBDS,"BASECATy where y is an integer [1-9, not zero-padded]","Within a parameter, there is more than one value of BASECATy for a given value of BASECAyN, considering only those rows on which both variables are populated",TRUE,Cross-record BDS-style check; fixtures need at least two parameters to prove partitioning.,PR REVIEW,Maximo,https://github.com/verisianHQ/core-contributor/pull/776,
AD0330,,Parameter-qualified conditional mapping,"1.1, 1.2, 1.3",BDS;MDBDS,"BASECAyN where y is an integer [1-9, not zero-padded]","Within a parameter, there is more than one value of BASECAyN for a given value of BASECATy, considering only those rows on which both variables are populated",FALSE,Cross-record BDS-style check; fixtures need at least two parameters to prove partitioning.,PR REVIEW,Maximo,https://github.com/verisianHQ/core-contributor/pull/776,
AD0331,,Parameter-qualified conditional mapping,"1.1, 1.2, 1.3",BDS;MDBDS,"CHGCATy where y is an integer [1-99, not zero-padded]","Within a parameter, there is more than one value of CHGCATy for a given value of CHGCATyN, considering only those rows on which both variables are populated",TRUE,Cross-record BDS-style check; fixtures need at least two parameters to prove partitioning.,PR REVIEW,Maximo,https://github.com/verisianHQ/core-contributor/pull/776,
AD0332,,Parameter-qualified conditional mapping,"1.1, 1.2, 1.3",BDS;MDBDS,"CHGCATyN where y is an integer [1-9, not zero-padded]","Within a parameter, there is more than one value of CHGCATyN for a given value of CHGCATy, considering only those rows on which both variables are populated",TRUE,Cross-record BDS-style check; fixtures need at least two parameters to prove partitioning.,PR REVIEW,Maximo,https://github.com/verisianHQ/core-contributor/pull/776,
AD0333,,Parameter-qualified conditional mapping,"1.1, 1.2, 1.3",BDS;MDBDS,"PCHGCATy where y is an integer [1-9, not zero-padded]","Within a parameter, there is more than one value of PCHGCATy for a given value of PCHGCAyN, considering only those rows on which both variables are populated",TRUE,Cross-record BDS-style check; fixtures need at least two parameters to prove partitioning.,PR REVIEW,Maximo,https://github.com/verisianHQ/core-contributor/pull/776,
AD0334,,Parameter-qualified conditional mapping,"1.1, 1.2, 1.3",BDS;MDBDS,"PCHGCAyN where y is an integer [1-9, not zero-padded]","Within a parameter, there is more than one value of PCHGCAyN for a given value of PCHGCATy, considering only those rows on which both variables are populated",TRUE,Cross-record BDS-style check; fixtures need at least two parameters to prove partitioning.,PR REVIEW,Maximo,https://github.com/verisianHQ/core-contributor/pull/776,
AD0335,,Conditional metadata companion existence,"1.0, 1.1, 1.2, 1.3",BDS;MDBDS,"CRITyFL where y is an integer [1-9, not zero-padded]; CRITyFL where y is an integer [1-99, not zero-padded]",CRITyFL is present and CRITy is not present,TRUE,"""Variable-metadata check; fixtures need column definitions, not populated records.""",PR REVIEW,Enrico,https://github.com/verisianHQ/core-contributor/pull/755,
AD0336,,Conditional metadata companion existence,"1.0, 1.1, 1.2, 1.3",BDS;MDBDS,"CRITy where y is an integer [1-9, not zero-padded]; CRITy where y is an integer [1-99, not zero-padded]",CRITy is present and CRITyFL is not present,TRUE,"""Variable-metadata check; fixtures need column definitions, not populated records.""",PR REVIEW,Enrico,https://github.com/verisianHQ/core-contributor/pull/755,
AD0337,,Conditional metadata companion existence,"1.1, 1.2, 1.3",BDS;MDBDS,"MCRITyML where y is an integer [1-9, not zero-padded]",MCRITyML is present and MCRITy is not present,TRUE,"""Variable-metadata check; fixtures need column definitions, not populated records.""",PR REVIEW,Enrico,https://github.com/verisianHQ/core-contributor/pull/755,
AD0338,,Conditional metadata companion existence,"1.1, 1.2, 1.3",BDS;MDBDS,"MCRITy where y is an integer [1-99, not zero-padded]",MCRITy is present and MCRITyML is not present,TRUE,"""Variable-metadata check; fixtures need column definitions, not populated records.""",PR REVIEW,Enrico,https://github.com/verisianHQ/core-contributor/pull/755,
AD0339,,Same-record paired population,"1.1, 1.2, 1.3",BDS;MDBDS,"MCRITy where y is an integer [1-99, not zero-padded]",MCRITyML is populated and MCRITy is not populated,TRUE,Record data; wildcard/index captures often required. Includes reciprocal pairs as separate Rule IDs. **144/144 implemented.**,PR REVIEW,Richard,https://github.com/verisianHQ/core-contributor/pull/762,
AD0340,,Parameter-qualified conditional mapping,"1.1, 1.2, 1.3",BDS;MDBDS,"MCRITyML where y is an integer [1-9, not zero-padded]","Within a parameter, there is more than one value of MCRITyML for a given value of MCRITyMN, considering only those rows on which both variables are populated",TRUE,Cross-record BDS-style check; fixtures need at least two parameters to prove partitioning.,PR REVIEW,Maximo,https://github.com/verisianHQ/core-contributor/pull/776,
AD0341,,Parameter-qualified conditional mapping,"1.1, 1.2, 1.3",BDS;MDBDS,"MCRITyMN where y is an integer [1-9, not zero-padded]","Within a parameter, there is more than one value of MCRITyMN for a given value of MCRITyML, considering only those rows on which both variables are populated",TRUE,Cross-record BDS-style check; fixtures need at least two parameters to prove partitioning.,PR REVIEW,Maximo,https://github.com/verisianHQ/core-contributor/pull/776,
AD0342,,Unconditional parameter-qualified mapping,"1.1, 1.2, 1.3",BDS;MDBDS,ANRLO,"Within a parameter, there is more than one value of ANRLO for a given value of ANRLOC",TRUE,Cross-record BDS mapping without a population prefilter.,PR REVIEW,Maximo,https://github.com/verisianHQ/core-contributor/pull/776,
AD0343,,Unconditional parameter-qualified mapping,"1.1, 1.2, 1.3",BDS;MDBDS,ANRLOC,"Within a parameter, there is more than one value of ANRLOC for a given value of ANRLO",TRUE,Cross-record BDS mapping without a population prefilter.,PR REVIEW,Maximo,https://github.com/verisianHQ/core-contributor/pull/755,
AD0344,,Unconditional parameter-qualified mapping,"1.1, 1.2, 1.3",BDS;MDBDS,ANRHI,"Within a parameter, there is more than one value of ANRHI for a given value of ANRHIC",TRUE,Cross-record BDS mapping without a population prefilter.,PR REVIEW,Maximo,https://github.com/verisianHQ/core-contributor/pull/755,
AD0345,,Unconditional parameter-qualified mapping,"1.1, 1.2, 1.3",BDS;MDBDS,ANRHIC,"Within a parameter, there is more than one value of ANRHIC for a given value of ANRHI",TRUE,Cross-record BDS mapping without a population prefilter.,PR REVIEW,Maximo,https://github.com/verisianHQ/core-contributor/pull/755,
AD0346,,,"1.1, 1.2, 1.3",BDS;MDBDS,"R2AyLO where y is an integer [1-99, not zero-padded]",R2AyLO is present and AyLO is not present,TRUE,,PR REVIEW,Richard,https://github.com/verisianHQ/core-contributor/pull/755,
AD0347,,Unconditional parameter-qualified mapping,"1.1, 1.2, 1.3",BDS;MDBDS,"AyLO where y is an integer [1-99, not zero-padded]","Within a parameter, there is more than one value of AyLO for a given value of AyLOC",TRUE,Cross-record BDS mapping without a population prefilter.,PR REVIEW,Maximo,https://github.com/verisianHQ/core-contributor/pull/776,
AD0348,,Unconditional parameter-qualified mapping,"1.1, 1.2, 1.3",BDS;MDBDS,"AyLOC where y is an integer [1-99, not zero-padded]","Within a parameter, there is more than one value of AyLOC for a given value of AyLO",TRUE,Cross-record BDS mapping without a population prefilter.,PR REVIEW,Maximo,https://github.com/verisianHQ/core-contributor/pull/776,
AD0349,,Conditional metadata companion existence,"1.1, 1.2, 1.3",BDS;MDBDS,"R2AyHI where y is an integer [1-99, not zero-padded]",R2AyHI is present and AyHI is not present,TRUE,"""Variable-metadata check; fixtures need column definitions, not populated records.""",PR REVIEW,Enrico,https://github.com/verisianHQ/core-contributor/pull/755,
AD0350,,Unconditional parameter-qualified mapping,"1.1, 1.2, 1.3",BDS;MDBDS,"AyHI where y is an integer [1-99, not zero-padded]","Within a parameter, there is more than one value of AyHI for a given value of AyHIC",TRUE,Cross-record BDS mapping without a population prefilter.,PR REVIEW,Maximo,https://github.com/verisianHQ/core-contributor/pull/776,
AD0351,,Unconditional parameter-qualified mapping,"1.1, 1.2, 1.3",BDS;MDBDS,"AyHIC where y is an integer [1-99, not zero-padded]","Within a parameter, there is more than one value of AyHIC for a given value of AyHI",TRUE,Cross-record BDS mapping without a population prefilter.,PR REVIEW,Maximo,https://github.com/verisianHQ/core-contributor/pull/776,
AD0352,,Analysis-window companion set,"1.1, 1.2, 1.3",BDS;MDBDS,"AyIND where y is an integer [1-99, not zero-padded]","AyIND is present and AyLO, AyHI, AyLOC, and AyHIC are all not present",TRUE,Multi-variable metadata dependency; indexed and non-indexed forms.,,,,
AD0353,,Subject selected-record derivation,"1.1, 1.2",BDS,"ByIND where y is an integer [1-99, not zero-padded]","BASETYPE is present, ByIND is populated, and ByIND is not equal to AyIND where ABLFL is equal to Y for a given value of PARAMCD and BASETYPE for a subject",TRUE,Cross-record subject derivation.,,,,
AD0354,,Subject fallback derivation,"1.1, 1.2, 1.3",BDS,"ByIND where y is an integer [1-99, not zero-padded]","BASETYPE is not present, ByIND is populated, and ByIND is not equal to AyIND where ABLFL is equal to Y for a given value of PARAMCD for a subject",FALSE,Cross-record subject derivation.,,,,
AD0355,,Conditional bidirectional value mapping,"1.1, 1.2, 1.3",ADSL,"REGIONy where y is an integer [1-99, not zero-padded]","There is more than one value of REGIONy for a given value of REGIONyN, considering only those rows on which both variables are populated",FALSE,Cross-record consistency; generally dataset-local. Requires duplicate-key fixtures with conflicting mapped values.,PR REVIEW,Richard,https://github.com/verisianHQ/core-contributor/pull/765,
AD0356,,Conditional bidirectional value mapping,"1.1, 1.2, 1.3",ADSL,"REGIONyN where y is an integer [1-9, not zero-padded]","There is more than one value of REGIONyN for a given value of REGIONy, considering only those rows on which both variables are populated",FALSE,Cross-record consistency; generally dataset-local. Requires duplicate-key fixtures with conflicting mapped values.,PR REVIEW,Richard,https://github.com/verisianHQ/core-contributor/pull/765,
AD0359,,Conditional bidirectional value mapping,"1.1, 1.2, 1.3",ADSL,DTHCAUS,"There is more than one value of DTHCAUS for a given value of DTHCAUSN, considering only those rows on which both variables are populated",TRUE,Cross-record consistency; generally dataset-local. Requires duplicate-key fixtures with conflicting mapped values.,PR REVIEW,Richard,https://github.com/verisianHQ/core-contributor/pull/755,
AD0360,,Conditional bidirectional value mapping,"1.1, 1.2, 1.3",ADSL,DTHCAUSN,"There is more than one value of DTHCAUSN for a given value of DTHCAUS, considering only those rows on which both variables are populated",FALSE,Cross-record consistency; generally dataset-local. Requires duplicate-key fixtures with conflicting mapped values.,PR REVIEW,Richard,https://github.com/verisianHQ/core-contributor/pull/765,
AD0361,,Paired date ordering,"1.0, 1.1, 1.2, 1.3",ALL,ASTDT,"The value of ASTDT is greater than the value of AENDT, considering only those rows on which both variables are populated",FALSE,Same-record ordered comparison.,,,,
AD0362,,Paired date ordering,"1.0, 1.1, 1.2, 1.3",ALL,ASTDTM,"The value of ASTDTM is greater than the value of AENDTM, considering only those rows on which both variables are populated",FALSE,Same-record ordered comparison.,,,,
AD0363,,Character flag values Y/null,"1.0, 1.1",BDS;OCCDS,ONTRTFL,ONTRTFL is not equal to Y or null,FALSE,Record-value controlled set.,PR REVIEW,Enrico,https://github.com/verisianHQ/core-contributor/pull/796,
AD0364,,,"1.1, 1.2, 1.3",OCCDS;MDODDS,DOSEON; DOSCUMA,DOSEON or DOSCUMA is present and DOSEU is not present,FALSE,,PR REVIEW,Richard,https://github.com/verisianHQ/core-contributor/pull/798,
AD0365,,,"1.0, 1.1, 1.2, 1.3",ADSL,,SDTM.EX is present and neither TRTEDT or TRTEDTM are present,TRUE,,PR REVIEW,Richard,https://github.com/verisianHQ/core-contributor/pull/798,
AD0366,,,"1.0, 1.1, 1.2, 1.3",ADSL,RANDFL,RANDDT is not present when RANDFL is equal to Y for at least one record,TRUE,,PR REVIEW,Richard,https://github.com/verisianHQ/core-contributor/pull/798,
AD0367,,Cross-dataset record value equality,"1.1, 1.2, 1.3",ADSL,ACTARM,The value of ADSL.USUBJID is equal to the value of DM.USUBJID and ADSL.ACTARM is not equal to DM.ACTARM,TRUE,Cross-dataset record comparison; fixtures need matching and nonmatching keys.,PR REVIEW,Maximo,https://github.com/verisianHQ/core-contributor/pull/748,
AD0368,,,"1.0, 1.1, 1.2, 1.3",ADSL,,TRxxAGy is not present and both TRxxPGy and TRTxxA are present,TRUE,,PR REVIEW,Richard,https://github.com/verisianHQ/core-contributor/pull/798,
AD0369,,At least one companion populated,"1.0, 1.1, 1.2, 1.3",BDS;OCCDS;MDBDS;MDODDS,*DT; *DTM,*DTF is populated and neither *DT nor *DTM is populated,TRUE,Same-record compound population requirement.,,,,
AD0370,,At least one companion populated,"1.0, 1.1, 1.2, 1.3",BDS;OCCDS;MDBDS;MDODDS,*TM; *DTM,*TMF is populated and neither *TM nor *DTM is populated,TRUE,Same-record compound population requirement.,,,,
AD0373,,Unconditional required metadata variables,"1.0, 1.1, 1.2, 1.3",BDS;MDBDS,,CNSR is not present,TRUE,Variable metadata; unconditional within the applicable class/domain.,PR REVIEW,Enrico,https://github.com/verisianHQ/core-contributor/pull/796,
AD0374,,Unconditional required metadata variables,"1.0, 1.1, 1.2, 1.3",BDS;MDBDS,,AVAL is not present,TRUE,Variable metadata; unconditional within the applicable class/domain.,PR REVIEW,Enrico,https://github.com/verisianHQ/core-contributor/pull/709,
AD0375,,Same-record paired population,"1.2, 1.3",ALL,"*GRy where y is an integer [1-99, not zero-padded]","On a given record, a variable which has a suffix of GRyN is populated and a variable with the same root name and suffix of GRy is not populated",TRUE,Record data; wildcard/index captures often required. Includes reciprocal pairs as separate Rule IDs. **144/144 implemented.**,PR REVIEW,Richard,https://github.com/verisianHQ/core-contributor/pull/762,
AD0376,,Same-record paired population,"1.2, 1.3",ALL,"*GRyN where y is an integer [1-99, not zero-padded]","On a given record, a variable which has a suffix of GRy is populated and a variable with the same root name and suffix of GRyN is not populated",TRUE,Record data; wildcard/index captures often required. Includes reciprocal pairs as separate Rule IDs. **144/144 implemented.**,PR REVIEW,Richard,https://github.com/verisianHQ/core-contributor/pull/762,
AD0377,,Metadata-gated paired population,"1.2, 1.3",ADSL,"TRTxxPN where xx is an integer [01-99, zero-padded]","On a given record, TRTxxP is populated and TRTxxPN is not populated",TRUE,Metadata condition plus same-record population. **2/2 implemented.**,PR REVIEW,Richard,https://github.com/verisianHQ/core-contributor/pull/762,
AD0378,,Metadata-gated paired population,"1.2, 1.3",ADSL,"TRTxxP where xx is an integer [01-99, zero-padded]","On a given record, TRTxxPN is populated and TRTxxP is not populated",FALSE,Metadata condition plus same-record population. **2/2 implemented.**,PR REVIEW,Richard,https://github.com/verisianHQ/core-contributor/pull/762,
AD0379,,Same-record paired population,"1.2, 1.3",BDS;MDBDS,BTOXGR,"On a given record, BTOXGRN is populated and BTOXGR is not populated",FALSE,Record data; wildcard/index captures often required. Includes reciprocal pairs as separate Rule IDs. **144/144 implemented.**,PR REVIEW,Richard,https://github.com/verisianHQ/core-contributor/pull/762,
AD0380,,Same-record paired population,"1.2, 1.3",BDS;MDBDS,BTOXGRN,"On a given record, BTOXGR is populated and BTOXGRN is not populated",FALSE,Record data; wildcard/index captures often required. Includes reciprocal pairs as separate Rule IDs. **144/144 implemented.**,PR REVIEW,Richard,https://github.com/verisianHQ/core-contributor/pull/762,
AD0381,,Parameter-qualified conditional mapping,"1.2, 1.3",BDS;MDBDS,BTOXGR,"Within a parameter, there is more than one value of BTOXGR for a given value of BTOXGRN, considering only those rows on which both variables are populated",TRUE,Cross-record BDS-style check; fixtures need at least two parameters to prove partitioning.,WORKING ON,Maximo,,
AD0382,,Parameter-qualified conditional mapping,"1.2, 1.3",BDS;MDBDS,BTOXGRN,"Within a parameter, there is more than one value of BTOXGRN for a given value of BTOXGR, considering only those rows on which both variables are populated",TRUE,Cross-record BDS-style check; fixtures need at least two parameters to prove partitioning.,WORKING ON,Maximo,,
AD0383,,Parameter-qualified conditional mapping,"1.2, 1.3",BDS;MDBDS,BTOXGRL,"Within a parameter, there is more than one value of BTOXGRL for a given value of BTOXGRLN, considering only those rows on which both variables are populated",TRUE,Cross-record BDS-style check; fixtures need at least two parameters to prove partitioning.,PR REVIEW,Maximo,https://github.com/verisianHQ/core-contributor/pull/776,
AD0384,,Parameter-qualified conditional mapping,"1.2, 1.3",BDS;MDBDS,BTOXGRLN,"Within a parameter, there is more than one value of BTOXGRLN for a given value of BTOXGRL, considering only those rows on which both variables are populated",TRUE,Cross-record BDS-style check; fixtures need at least two parameters to prove partitioning.,PR REVIEW,Maximo,https://github.com/verisianHQ/core-contributor/pull/776,
AD0385,,Same-record paired population,"1.2, 1.3",BDS;MDBDS,BTOXGRLN,"On a given record, BTOXGRL is populated and BTOXGRLN is not populated",TRUE,Record data; wildcard/index captures often required. Includes reciprocal pairs as separate Rule IDs. **144/144 implemented.**,PR REVIEW,Richard,https://github.com/verisianHQ/core-contributor/pull/762,
AD0386,,Same-record paired population,"1.2, 1.3",BDS;MDBDS,BTOXGRL,"On a given record, BTOXGRLN is populated and BTOXGRL is not populated",TRUE,Record data; wildcard/index captures often required. Includes reciprocal pairs as separate Rule IDs. **144/144 implemented.**,PR REVIEW,Richard,https://github.com/verisianHQ/core-contributor/pull/762,
AD0387,,Parameter-qualified conditional mapping,"1.2, 1.3",BDS;MDBDS,BTOXGRH,"Within a parameter, there is more than one value of BTOXGRH for a given value of BTOXGRHN, considering only those rows on which both variables are populated",TRUE,Cross-record BDS-style check; fixtures need at least two parameters to prove partitioning.,PR REVIEW,Maximo,https://github.com/verisianHQ/core-contributor/pull/776,
AD0388,,Parameter-qualified conditional mapping,"1.2, 1.3",BDS;MDBDS,BTOXGRHN,"Within a parameter, there is more than one value of BTOXGRHN for a given value of BTOXGRH, considering only those rows on which both variables are populated",TRUE,Cross-record BDS-style check; fixtures need at least two parameters to prove partitioning.,PR REVIEW,Maximo,https://github.com/verisianHQ/core-contributor/pull/776,
AD0389,,Same-record paired population,"1.2, 1.3",BDS;MDBDS,BTOXGRHN,"On a given record, BTOXGRH is populated and BTOXGRHN is not populated",TRUE,Record data; wildcard/index captures often required. Includes reciprocal pairs as separate Rule IDs. **144/144 implemented.**,PR REVIEW,Richard,https://github.com/verisianHQ/core-contributor/pull/762,
AD0390,,Same-record paired population,"1.2, 1.3",BDS;MDBDS,BTOXGRH,"On a given record, BTOXGRHN is populated and BTOXGRH is not populated",TRUE,Record data; wildcard/index captures often required. Includes reciprocal pairs as separate Rule IDs. **144/144 implemented.**,PR REVIEW,Richard,https://github.com/verisianHQ/core-contributor/pull/762,
AD0391,,Same-record paired population,"1.2, 1.3",BDS;OCCDS;MDBDS;MDODDS,ATOXGRN,"On a given record, ATOXGR is populated and ATOXGRN is not populated",TRUE,Record data; wildcard/index captures often required. Includes reciprocal pairs as separate Rule IDs. **144/144 implemented.**,PR REVIEW,Richard,https://github.com/verisianHQ/core-contributor/pull/762,
AD0392,,Same-record paired population,"1.2, 1.3",BDS;OCCDS;MDBDS;MDODDS,ATOXGR,"On a given record, ATOXGRN is populated and ATOXGR is not populated",TRUE,Record data; wildcard/index captures often required. Includes reciprocal pairs as separate Rule IDs. **144/144 implemented.**,PR REVIEW,Richard,https://github.com/verisianHQ/core-contributor/pull/762,
AD0393,,Same-record paired population,"1.2, 1.3",BDS;MDBDS,ATOXGRLN,"On a given record, ATOXGRL is populated and ATOXGRLN is not populated",TRUE,Record data; wildcard/index captures often required. Includes reciprocal pairs as separate Rule IDs. **144/144 implemented.**,PR REVIEW,Richard,https://github.com/verisianHQ/core-contributor/pull/762,
AD0394,,Same-record paired population,"1.2, 1.3",BDS;MDBDS,ATOXGRL,"On a given record, ATOXGRLN is populated and ATOXGRL is not populated",TRUE,Record data; wildcard/index captures often required. Includes reciprocal pairs as separate Rule IDs. **144/144 implemented.**,PR REVIEW,Richard,https://github.com/verisianHQ/core-contributor/pull/762,
AD0395,,Parameter-qualified conditional mapping,"1.2, 1.3",BDS;MDBDS,ATOXGRL,"Within a parameter, there is more than one value of ATOXGRL for a given value of ATOXGRLN, considering only those rows on which both variables are populated",TRUE,Cross-record BDS-style check; fixtures need at least two parameters to prove partitioning.,PR REVIEW,Maximo,https://github.com/verisianHQ/core-contributor/pull/776,
AD0396,,Parameter-qualified conditional mapping,"1.2, 1.3",BDS;MDBDS,ATOXGRLN,"Within a parameter, there is more than one value of ATOXGRLN for a given value of ATOXGRL, considering only those rows on which both variables are populated",TRUE,Cross-record BDS-style check; fixtures need at least two parameters to prove partitioning.,PR REVIEW,Maximo,https://github.com/verisianHQ/core-contributor/pull/776,
AD0397,,Same-record paired population,"1.2, 1.3",BDS;MDBDS,ATOXGRHN,"On a given record, ATOXGRH is populated and ATOXGRHN is not populated",TRUE,Record data; wildcard/index captures often required. Includes reciprocal pairs as separate Rule IDs. **144/144 implemented.**,PR REVIEW,Richard,https://github.com/verisianHQ/core-contributor/pull/762,
AD0398,,Same-record paired population,"1.2, 1.3",BDS;MDBDS,ATOXGRH,"On a given record, ATOXGRHN is populated and ATOXGRH is not populated",TRUE,Record data; wildcard/index captures often required. Includes reciprocal pairs as separate Rule IDs. **144/144 implemented.**,PR REVIEW,Richard,https://github.com/verisianHQ/core-contributor/pull/762,
AD0399,,Parameter-qualified conditional mapping,"1.2, 1.3",BDS;MDBDS,ATOXGRH,"Within a parameter, there is more than one value of ATOXGRH for a given value of ATOXGRHN, considering only those rows on which both variables are populated",TRUE,Cross-record BDS-style check; fixtures need at least two parameters to prove partitioning.,PR REVIEW,Maximo,https://github.com/verisianHQ/core-contributor/pull/776,
AD0400,,Parameter-qualified conditional mapping,"1.2, 1.3",BDS;MDBDS,ATOXGRHN,"Within a parameter, there is more than one value of ATOXGRHN for a given value of ATOXGRH, considering only those rows on which both variables are populated",TRUE,Cross-record BDS-style check; fixtures need at least two parameters to prove partitioning.,PR REVIEW,Maximo,https://github.com/verisianHQ/core-contributor/pull/776,
AD0401,,Two required populated companions,"1.2, 1.3",BDS;MDBDS,AVAL; ATOXGRL,"AVAL is not populated or ATOXGRL is not populated, and ATOXDSCL is populated",TRUE,Same-record compound population.,,,,
AD0402,,Two required populated companions,"1.2, 1.3",BDS;MDBDS,AVAL; ATOXGRH,"AVAL is not populated or ATOXGRH is not populated, and ATOXDSCH is populated",TRUE,Same-record compound population.,,,,
AD0403,,Subject-level conditional mapping,"1.2, 1.3",BDS,ATOXDSCL,"Within a subject, there is more than one value of ATOXDSCL for a given value of PARAM, considering only those rows on which both variables are populated",TRUE,Cross-record subject partition.,,,,
AD0405,,Subject-level conditional mapping,"1.2, 1.3",BDS,ATOXDSCH,"Within a subject, there is more than one value of ATOXDSCH for a given value of PARAM, considering only those rows on which both variables are populated",TRUE,Cross-record subject partition.,,,,
AD0407,,Same-record paired population,"1.2, 1.3",BDS;MDBDS,ABLFL,"On a given record, ABLFN is populated and ABLFL is not populated",TRUE,Record data; wildcard/index captures often required. Includes reciprocal pairs as separate Rule IDs. **144/144 implemented.**,PR REVIEW,Richard,https://github.com/verisianHQ/core-contributor/pull/762,
AD0408,,Same-record paired population,"1.2, 1.3",BDS;MDBDS,ABLFN,"On a given record, ABLFL is populated and ABLFN is not populated",TRUE,Record data; wildcard/index captures often required. Includes reciprocal pairs as separate Rule IDs. **144/144 implemented.**,PR REVIEW,Richard,https://github.com/verisianHQ/core-contributor/pull/762,
AD0409,,Conditional bidirectional value mapping,"1.2, 1.3",BDS;MDBDS,ABLFN,"There is more than one value of ABLFN for a given value of ABLFL, considering only those rows on which both variables are populated",TRUE,Cross-record consistency; generally dataset-local. Requires duplicate-key fixtures with conflicting mapped values.,PR REVIEW,Richard,https://github.com/verisianHQ/core-contributor/pull/765,
AD0410,,Conditional bidirectional value mapping,"1.2, 1.3",BDS;MDBDS,ABLFL,"There is more than one value of ABLFL for a given value of ABLFN, considering only those rows on which both variables are populated",TRUE,Cross-record consistency; generally dataset-local. Requires duplicate-key fixtures with conflicting mapped values.,PR REVIEW,Richard,https://github.com/verisianHQ/core-contributor/pull/765,
AD0411,,Same-record paired population,"1.2, 1.3",BDS;MDBDS,"ANLzzFL where zz is an integer [01-99, zero-padded]","On a given record, ANLzzFN is populated and ANLzzFL is not populated",TRUE,Record data; wildcard/index captures often required. Includes reciprocal pairs as separate Rule IDs. **144/144 implemented.**,PR REVIEW,Richard,https://github.com/verisianHQ/core-contributor/pull/762,
AD0412,,Same-record paired population,"1.2, 1.3",BDS;MDBDS,"ANLzzFN where zz is an integer [01-99, zero-padded]","On a given record, ANLzzFL is populated and ANLzzFN is not populated",TRUE,Record data; wildcard/index captures often required. Includes reciprocal pairs as separate Rule IDs. **144/144 implemented.**,PR REVIEW,Richard,https://github.com/verisianHQ/core-contributor/pull/762,
AD0413,,Conditional bidirectional value mapping,"1.2, 1.3",BDS;MDBDS,"ANLzzFN where zz is an integer [01-99, zero-padded]","There is more than one value of ANLzzFN for a given value of ANLzzFL, considering only those rows on which both variables are populated",TRUE,Cross-record consistency; generally dataset-local. Requires duplicate-key fixtures with conflicting mapped values.,PR REVIEW,Richard,https://github.com/verisianHQ/core-contributor/pull/765,
AD0414,,Conditional bidirectional value mapping,"1.2, 1.3",BDS;MDBDS,"ANLzzFL where zz is an integer [01-99, zero-padded]","There is more than one value of ANLzzFL for a given value of ANLzzFN , considering only those rows on which both variables are populated",TRUE,Cross-record consistency; generally dataset-local. Requires duplicate-key fixtures with conflicting mapped values.,PR REVIEW,Richard,https://github.com/verisianHQ/core-contributor/pull/765,
AD0415,,Same-record paired population,"1.2, 1.3",ADSL,TRTSEQP,"On a given record, TRTSEQPN is populated and TRTSEQP is not populated",TRUE,Record data; wildcard/index captures often required. Includes reciprocal pairs as separate Rule IDs. **144/144 implemented.**,PR REVIEW,Richard,https://github.com/verisianHQ/core-contributor/pull/762,
AD0416,,Same-record paired population,"1.2, 1.3",ADSL,TRTSEQPN,"On a given record, TRTSEQP is populated and TRTSEQPN is not populated",TRUE,Record data; wildcard/index captures often required. Includes reciprocal pairs as separate Rule IDs. **144/144 implemented.**,PR REVIEW,Richard,https://github.com/verisianHQ/core-contributor/pull/762,
AD0417,,Same-record paired population,"1.2, 1.3",ADSL,TRTSEQA,"On a given record, TRTSEQAN is populated and TRTSEQA is not populated",TRUE,Record data; wildcard/index captures often required. Includes reciprocal pairs as separate Rule IDs. **144/144 implemented.**,PR REVIEW,Richard,https://github.com/verisianHQ/core-contributor/pull/762,
AD0418,,Same-record paired population,"1.2, 1.3",ADSL,TRTSEQAN,"On a given record, TRTSEQA is populated and TRTSEQAN is not populated",TRUE,Record data; wildcard/index captures often required. Includes reciprocal pairs as separate Rule IDs. **144/144 implemented.**,PR REVIEW,Richard,https://github.com/verisianHQ/core-contributor/pull/762,
AD0419,,Same-record paired population,"1.2, 1.3",ADSL,"TRxxPGy where xx is an integer [01-99, zero-padded] and y is an integer [1-99, not zero-padded]","On a given record, TRxxPGyN is populated and TRxxPGy is not populated",TRUE,Record data; wildcard/index captures often required. Includes reciprocal pairs as separate Rule IDs. **144/144 implemented.**,PR REVIEW,Richard,https://github.com/verisianHQ/core-contributor/pull/762,
AD0420,,Same-record paired population,"1.2, 1.3",ADSL,"TRxxPGyN where xx is an integer [01-99, zero-padded] and y is an integer [1-9, not zero-padded]","On a given record, TRxxPGy is populated and TRxxPGyN is not populated",TRUE,Record data; wildcard/index captures often required. Includes reciprocal pairs as separate Rule IDs. **144/144 implemented.**,PR REVIEW,Richard,https://github.com/verisianHQ/core-contributor/pull/762,
AD0421,,Same-record paired population,"1.2, 1.3",ADSL,"TRxxAGy where xx is an integer [01-99, zero-padded] and y is an integer [1-99, not zero-padded]","On a given record, TRxxAGyN is populated and TRxxAGy is not populated",TRUE,Record data; wildcard/index captures often required. Includes reciprocal pairs as separate Rule IDs. **144/144 implemented.**,PR REVIEW,Richard,https://github.com/verisianHQ/core-contributor/pull/762,
AD0422,,Same-record paired population,"1.2, 1.3",ADSL,"TRxxAGyN where xx is an integer [01-99, zero-padded] and y is an integer [1-9, not zero-padded]","On a given record, TRxxAGy is populated and TRxxAGyN is not populated",TRUE,Record data; wildcard/index captures often required. Includes reciprocal pairs as separate Rule IDs. **144/144 implemented.**,PR REVIEW,Richard,https://github.com/verisianHQ/core-contributor/pull/762,
AD0423,,Same-record paired population,"1.2, 1.3",BDS;OCCDS;MDBDS;MDODDS,"TRTPGy where y is an integer [1-99, not zero-padded]","On a given record, TRTPGyN is populated and TRTPGy is not populated",TRUE,Record data; wildcard/index captures often required. Includes reciprocal pairs as separate Rule IDs. **144/144 implemented.**,PR REVIEW,Richard,https://github.com/verisianHQ/core-contributor/pull/762,
AD0424,,Same-record paired population,"1.2, 1.3",BDS;OCCDS;MDBDS;MDODDS,"TRTPGyN where y is an integer [1-99, not zero-padded]","On a given record, TRTPGy is populated and TRTPGyN is not populated",TRUE,Record data; wildcard/index captures often required. Includes reciprocal pairs as separate Rule IDs. **144/144 implemented.**,PR REVIEW,Richard,https://github.com/verisianHQ/core-contributor/pull/762,
AD0425,,Same-record paired population,"1.2, 1.3",BDS;OCCDS;MDBDS;MDODDS,"TRTAGyN where y is an integer [1-99, not zero-padded]","On a given record, TRTAGy is populated and TRTAGyN is not populated",TRUE,Record data; wildcard/index captures often required. Includes reciprocal pairs as separate Rule IDs. **144/144 implemented.**,PR REVIEW,Richard,https://github.com/verisianHQ/core-contributor/pull/762,
AD0426,,Same-record paired population,"1.2, 1.3",BDS;OCCDS;MDBDS;MDODDS,"TRTAGy where y is an integer [1-99, not zero-padded]","On a given record, TRTAGyN is populated and TRTAGy is not populated",TRUE,Record data; wildcard/index captures often required. Includes reciprocal pairs as separate Rule IDs. **144/144 implemented.**,PR REVIEW,Richard,https://github.com/verisianHQ/core-contributor/pull/762,
AD0427,,Same-record paired population,"1.2, 1.3",ADSL,"TRTxxAN where xx is an integer [01-99, zero-padded]","On a given record, TRTxxA is populated and TRTxxAN is not populated",TRUE,Record data; wildcard/index captures often required. Includes reciprocal pairs as separate Rule IDs. **144/144 implemented.**,PR REVIEW,Richard,https://github.com/verisianHQ/core-contributor/pull/762,
AD0428,,Same-record paired population,"1.2, 1.3",ADSL,"TRTxxA where xx is an integer [01-99, zero-padded]","On a given record, TRTxxAN is populated and TRTxxA is not populated",TRUE,Record data; wildcard/index captures often required. Includes reciprocal pairs as separate Rule IDs. **144/144 implemented.**,PR REVIEW,Richard,https://github.com/verisianHQ/core-contributor/pull/762,
AD0429,,Same-record paired population,"1.2, 1.3",BDS;OCCDS;MDBDS;MDODDS,APERIODC,"On a given record, APERIOD is populated and APERIODC is not populated",TRUE,Record data; wildcard/index captures often required. Includes reciprocal pairs as separate Rule IDs. **144/144 implemented.**,PR REVIEW,Richard,https://github.com/verisianHQ/core-contributor/pull/762,
AD0430,,Same-record paired population,"1.2, 1.3",BDS;OCCDS;MDBDS;MDODDS,APERIOD,"On a given record, APERIODC is populated and APERIOD is not populated",TRUE,Record data; wildcard/index captures often required. Includes reciprocal pairs as separate Rule IDs. **144/144 implemented.**,PR REVIEW,Richard,https://github.com/verisianHQ/core-contributor/pull/762,
AD0431,,Same-record paired population,"1.2, 1.3",BDS;OCCDS;MDBDS;MDODDS,APHASEN,"On a given record, APHASE is populated and APHASEN is not populated",TRUE,Record data; wildcard/index captures often required. Includes reciprocal pairs as separate Rule IDs. **144/144 implemented.**,PR REVIEW,Richard,https://github.com/verisianHQ/core-contributor/pull/762,
AD0432,,Same-record paired population,"1.2, 1.3",BDS;OCCDS;MDBDS;MDODDS,APHASE,"On a given record, APHASEN is populated and APHASE is not populated",TRUE,Record data; wildcard/index captures often required. Includes reciprocal pairs as separate Rule IDs. **144/144 implemented.**,PR REVIEW,Richard,https://github.com/verisianHQ/core-contributor/pull/762,
AD0433,,Same-record paired population,"1.2, 1.3",BDS;OCCDS;MDBDS;MDODDS,ASPERC,"On a given record, ASPER is populated and ASPERC is not populated",TRUE,Record data; wildcard/index captures often required. Includes reciprocal pairs as separate Rule IDs. **144/144 implemented.**,PR REVIEW,Richard,https://github.com/verisianHQ/core-contributor/pull/762,
AD0434,,Same-record paired population,"1.2, 1.3",BDS;OCCDS;MDBDS;MDODDS,ASPER,"On a given record, ASPERC is populated and ASPER is not populated",TRUE,Record data; wildcard/index captures often required. Includes reciprocal pairs as separate Rule IDs. **144/144 implemented.**,PR REVIEW,Richard,https://github.com/verisianHQ/core-contributor/pull/762,
AD0435,,Same-record paired population,"1.2, 1.3",BDS;OCCDS;MDBDS;MDODDS,ATPTN,"On a given record, ATPT is populated and ATPTN is not populated",TRUE,Record data; wildcard/index captures often required. Includes reciprocal pairs as separate Rule IDs. **144/144 implemented.**,PR REVIEW,Richard,https://github.com/verisianHQ/core-contributor/pull/762,
AD0436,,Same-record paired population,"1.2, 1.3",BDS;OCCDS;MDBDS;MDODDS,ATPT,"On a given record, ATPTN is populated and ATPT is not populated",TRUE,Record data; wildcard/index captures often required. Includes reciprocal pairs as separate Rule IDs. **144/144 implemented.**,PR REVIEW,Richard,https://github.com/verisianHQ/core-contributor/pull/762,
AD0437,,Same-record paired population,"1.2, 1.3",BDS;MDBDS,"AVALCAyN where y is an integer [1-9, not zero-padded]","On a given record, AVALCATy is populated and AVALCAyN is not populated",TRUE,Record data; wildcard/index captures often required. Includes reciprocal pairs as separate Rule IDs. **144/144 implemented.**,PR REVIEW,Richard,https://github.com/verisianHQ/core-contributor/pull/762,
AD0438,,Same-record paired population,"1.2, 1.3",BDS;MDBDS,"AVALCATy where y is an integer [1-9, not zero-padded]","On a given record, AVALCAyN is populated and AVALCATy is not populated",TRUE,Record data; wildcard/index captures often required. Includes reciprocal pairs as separate Rule IDs. **144/144 implemented.**,PR REVIEW,Richard,https://github.com/verisianHQ/core-contributor/pull/762,
AD0439,,Same-record paired population,"1.2, 1.3",BDS;MDBDS,"BASECAyN where y is an integer [1-9, not zero-padded]","On a given record, BASECATy is populated and BASECAyN is not populated",TRUE,Record data; wildcard/index captures often required. Includes reciprocal pairs as separate Rule IDs. **144/144 implemented.**,PR REVIEW,Richard,https://github.com/verisianHQ/core-contributor/pull/762,
AD0440,,Same-record paired population,"1.2, 1.3",BDS;MDBDS,"BASECATy where y is an integer [1-9, not zero-padded]","On a given record, BASECAyN is populated and BASECATy is not populated",TRUE,Record data; wildcard/index captures often required. Includes reciprocal pairs as separate Rule IDs. **144/144 implemented.**,PR REVIEW,Richard,https://github.com/verisianHQ/core-contributor/pull/762,
AD0441,,Same-record paired population,"1.2, 1.3",BDS;MDBDS,"CHGCATyN where y is an integer [1-9, not zero-padded]","On a given record, CHGCATy is populated and CHGCATyN is not populated",TRUE,Record data; wildcard/index captures often required. Includes reciprocal pairs as separate Rule IDs. **144/144 implemented.**,PR REVIEW,Richard,https://github.com/verisianHQ/core-contributor/pull/762,
AD0442,,Same-record paired population,"1.2, 1.3",BDS;MDBDS,"CHGCATy where y is an integer [1-99, not zero-padded]","On a given record, CHGCATyN is populated and CHGCATy is not populated",TRUE,Record data; wildcard/index captures often required. Includes reciprocal pairs as separate Rule IDs. **144/144 implemented.**,PR REVIEW,Richard,https://github.com/verisianHQ/core-contributor/pull/762,
AD0443,,Same-record paired population,"1.2, 1.3",BDS;MDBDS,"PCHGCAyN where y is an integer [1-9, not zero-padded]","On a given record, PCHGCATy is populated and PCHGCAyN is not populated",TRUE,Record data; wildcard/index captures often required. Includes reciprocal pairs as separate Rule IDs. **144/144 implemented.**,PR REVIEW,Richard,https://github.com/verisianHQ/core-contributor/pull/762,
AD0444,,Same-record paired population,"1.2, 1.3",BDS;MDBDS,"PCHGCATy where y is an integer [1-9, not zero-padded]","On a given record, PCHGCAyN is populated and PCHGCATy is not populated",TRUE,Record data; wildcard/index captures often required. Includes reciprocal pairs as separate Rule IDs. **144/144 implemented.**,PR REVIEW,Richard,https://github.com/verisianHQ/core-contributor/pull/762,
AD0445,,Same-record paired population,"1.2, 1.3",BDS;MDBDS,"PARCATyN where y is an integer [1-9, not zero-padded]","On a given record, PARCATy is populated and PARCATyN is not populated",TRUE,Record data; wildcard/index captures often required. Includes reciprocal pairs as separate Rule IDs. **144/144 implemented.**,PR REVIEW,Richard,https://github.com/verisianHQ/core-contributor/pull/762,
AD0446,,Same-record paired population,"1.2, 1.3",BDS;MDBDS,"PARCATy where y is an integer [1-99, not zero-padded]","On a given record, PARCATyN is populated and PARCATy is not populated",TRUE,Record data; wildcard/index captures often required. Includes reciprocal pairs as separate Rule IDs. **144/144 implemented.**,PR REVIEW,Richard,https://github.com/verisianHQ/core-contributor/pull/762,
AD0447,,Same-record paired population,"1.2, 1.3",BDS;OCCDS;MDBDS;MDODDS,AVISIT,"On a given record, AVISITN is populated and AVISIT is not populated",TRUE,Record data; wildcard/index captures often required. Includes reciprocal pairs as separate Rule IDs. **144/144 implemented.**,PR REVIEW,Richard,https://github.com/verisianHQ/core-contributor/pull/762,
AD0448,,Same-record paired population,"1.2, 1.3",ADSL,DTHCAUSN,"On a given record, DTHCAUS is populated and DTHCAUSN is not populated",TRUE,Record data; wildcard/index captures often required. Includes reciprocal pairs as separate Rule IDs. **144/144 implemented.**,PR REVIEW,Richard,https://github.com/verisianHQ/core-contributor/pull/762,
AD0449,,Same-record paired population,"1.2, 1.3",ADSL,DTHCAUS,"On a given record, DTHCAUSN is populated and DTHCAUS is not populated",TRUE,Record data; wildcard/index captures often required. Includes reciprocal pairs as separate Rule IDs. **144/144 implemented.**,PR REVIEW,Richard,https://github.com/verisianHQ/core-contributor/pull/762,
AD0450,,Same-record paired population,"1.2, 1.3",BDS;MDBDS,"MCRITyMN where y is an integer [1-9, not zero-padded]","On a given record, MCRITyML is populated and MCRITyMN is not populated",TRUE,Record data; wildcard/index captures often required. Includes reciprocal pairs as separate Rule IDs. **144/144 implemented.**,PR REVIEW,Richard,https://github.com/verisianHQ/core-contributor/pull/762,
AD0451,,Same-record paired population,"1.2, 1.3",BDS;MDBDS,"MCRITyML where y is an integer [1-9, not zero-padded]","On a given record, MCRITyMN is populated and MCRITyML is not populated",TRUE,Record data; wildcard/index captures often required. Includes reciprocal pairs as separate Rule IDs. **144/144 implemented.**,PR REVIEW,Richard,https://github.com/verisianHQ/core-contributor/pull/762,
AD0452,,Same-record paired population,"1.2, 1.3",ADSL,"REGIONyN where y is an integer [1-9, not zero-padded]","On a given record, REGIONy is populated and REGIONyN is not populated",TRUE,Record data; wildcard/index captures often required. Includes reciprocal pairs as separate Rule IDs. **144/144 implemented.**,PR REVIEW,Richard,https://github.com/verisianHQ/core-contributor/pull/762,
AD0453,,Same-record paired population,"1.2, 1.3",ADSL,"REGIONy where y is an integer [1-99, not zero-padded]","On a given record, REGIONyN is populated and REGIONy is not populated",TRUE,Record data; wildcard/index captures often required. Includes reciprocal pairs as separate Rule IDs. **144/144 implemented.**,PR REVIEW,Richard,https://github.com/verisianHQ/core-contributor/pull/762,
AD0454,,Same-record paired population,"1.2, 1.3",BDS;MDBDS,"SHIFTyN where y is an integer [1-99, not zero-padded]","On a given record, SHIFTy is populated and SHIFTyN is not populated",TRUE,Record data; wildcard/index captures often required. Includes reciprocal pairs as separate Rule IDs. **144/144 implemented.**,PR REVIEW,Richard,https://github.com/verisianHQ/core-contributor/pull/762,
AD0455,,Same-record paired population,"1.2, 1.3",BDS;MDBDS,"SHIFTy where y is an integer [1-99, not zero-padded]","On a given record, SHIFTyN is populated and SHIFTy is not populated",TRUE,Record data; wildcard/index captures often required. Includes reciprocal pairs as separate Rule IDs. **144/144 implemented.**,PR REVIEW,Richard,https://github.com/verisianHQ/core-contributor/pull/762,
AD0456,,Same-record paired population,"1.2, 1.3",BDS;OCCDS;MDBDS;MDODDS,TRTAN,"On a given record, TRTA is populated and TRTAN is not populated",TRUE,Record data; wildcard/index captures often required. Includes reciprocal pairs as separate Rule IDs. **144/144 implemented.**,PR REVIEW,Richard,https://github.com/verisianHQ/core-contributor/pull/762,
AD0457,,Same-record paired population,"1.2, 1.3",BDS;OCCDS;MDBDS;MDODDS,TRTA,"On a given record, TRTAN is populated and TRTA is not populated",TRUE,Record data; wildcard/index captures often required. Includes reciprocal pairs as separate Rule IDs. **144/144 implemented.**,PR REVIEW,Richard,https://github.com/verisianHQ/core-contributor/pull/762,
AD0458,,Same-record paired population,"1.2, 1.3",BDS;OCCDS;MDBDS;MDODDS,TRTPN,"On a given record, TRTP is populated and TRTPN is not populated",TRUE,Record data; wildcard/index captures often required. Includes reciprocal pairs as separate Rule IDs. **144/144 implemented.**,PR REVIEW,Richard,https://github.com/verisianHQ/core-contributor/pull/762,
AD0459,,Same-record paired population,"1.2, 1.3",BDS;OCCDS;MDBDS;MDODDS,TRTP,"On a given record, TRTPN is populated and TRTP is not populated",TRUE,Record data; wildcard/index captures often required. Includes reciprocal pairs as separate Rule IDs. **144/144 implemented.**,PR REVIEW,Richard,https://github.com/verisianHQ/core-contributor/pull/762,
AD0460,,Same-record paired population,"1.2, 1.3",BDS;OCCDS;MDBDS;MDODDS,"TSEQPGyN where y is an integer [1-9, not zero-padded]","On a given record, TSEQPGy is populated and TSEQPGyN is not populated",TRUE,Record data; wildcard/index captures often required. Includes reciprocal pairs as separate Rule IDs. **144/144 implemented.**,PR REVIEW,Richard,https://github.com/verisianHQ/core-contributor/pull/762,
AD0461,,Same-record paired population,"1.2, 1.3",BDS;OCCDS;MDBDS;MDODDS,"TSEQPGy where y is an integer [1-99, not zero-padded]","On a given record, TSEQPGyN is populated and TSEQPGy is not populated",TRUE,Record data; wildcard/index captures often required. Includes reciprocal pairs as separate Rule IDs. **144/144 implemented.**,PR REVIEW,Richard,https://github.com/verisianHQ/core-contributor/pull/762,
AD0462,,Same-record paired population,"1.2, 1.3",BDS;OCCDS;MDBDS;MDODDS,"TSEQAGyN where y is an integer [1-9, not zero-padded]","On a given record, TSEQAGy is populated and TSEQAGyN is not populated",TRUE,Record data; wildcard/index captures often required. Includes reciprocal pairs as separate Rule IDs. **144/144 implemented.**,PR REVIEW,Richard,https://github.com/verisianHQ/core-contributor/pull/762,
AD0463,,Same-record paired population,"1.2, 1.3",BDS;OCCDS;MDBDS;MDODDS,"TSEQAGy where y is an integer [1-99, not zero-padded]","On a given record, TSEQAGyN is populated and TSEQAGy is not populated",TRUE,Record data; wildcard/index captures often required. Includes reciprocal pairs as separate Rule IDs. **144/144 implemented.**,PR REVIEW,Richard,https://github.com/verisianHQ/core-contributor/pull/762,
AD0464,,Same-record paired population,"1.2, 1.3",ADSL,"TRCMPGyN where y is an integer [1-9, not zero-padded]","On a given record, TRCMPGy is populated and TRCMPGyN is not populated",TRUE,Record data; wildcard/index captures often required. Includes reciprocal pairs as separate Rule IDs. **144/144 implemented.**,PR REVIEW,Richard,https://github.com/verisianHQ/core-contributor/pull/762,
AD0465,,Same-record paired population,"1.2, 1.3",ADSL,"TRCMPGy where y is an integer [1-99, not zero-padded]","On a given record, TRCMPGyN is populated and TRCMPGy is not populated",TRUE,Record data; wildcard/index captures often required. Includes reciprocal pairs as separate Rule IDs. **144/144 implemented.**,PR REVIEW,Richard,https://github.com/verisianHQ/core-contributor/pull/762,
AD0466,,Same-record paired population,"1.2, 1.3",ADSL,STRATARN,"On a given record, STRATAR is populated and STRATARN is not populated",TRUE,Record data; wildcard/index captures often required. Includes reciprocal pairs as separate Rule IDs. **144/144 implemented.**,PR REVIEW,Richard,https://github.com/verisianHQ/core-contributor/pull/762,
AD0467,,Same-record paired population,"1.2, 1.3",ADSL,STRATAR,"On a given record, STRATARN is populated and STRATAR is not populated",TRUE,Record data; wildcard/index captures often required. Includes reciprocal pairs as separate Rule IDs. **144/144 implemented.**,PR REVIEW,Richard,https://github.com/verisianHQ/core-contributor/pull/762,
AD0468,,Conditional bidirectional value mapping,"1.2, 1.3",ADSL,STRATAR,"There is more than one value of STRATAR for a given value of STRATARN, considering only those rows on which both variables are populated",TRUE,Cross-record consistency; generally dataset-local. Requires duplicate-key fixtures with conflicting mapped values.,PR REVIEW,Richard,https://github.com/verisianHQ/core-contributor/pull/765,
AD0469,,Conditional bidirectional value mapping,"1.2, 1.3",ADSL,STRATARN,"There is more than one value of STRATARN for a given value of STRATAR, considering only those rows on which both variables are populated",TRUE,Cross-record consistency; generally dataset-local. Requires duplicate-key fixtures with conflicting mapped values.,PR REVIEW,Richard,https://github.com/verisianHQ/core-contributor/pull/765,
AD0470,,Same-record paired population,"1.2, 1.3",ADSL,"STRATwRN where w is an integer [1-9, not zero-padded]","On a given record, STRATwR is populated and STRATwRN is not populated",TRUE,Record data; wildcard/index captures often required. Includes reciprocal pairs as separate Rule IDs. **144/144 implemented.**,PR REVIEW,Richard,https://github.com/verisianHQ/core-contributor/pull/762,
AD0471,,Same-record paired population,"1.2, 1.3",ADSL,"STRATwR where w is an integer [1-9, not zero-padded]","On a given record, STRATwRN is populated and STRATwR is not populated",TRUE,Record data; wildcard/index captures often required. Includes reciprocal pairs as separate Rule IDs. **144/144 implemented.**,PR REVIEW,Richard,https://github.com/verisianHQ/core-contributor/pull/762,
AD0472,,Conditional bidirectional value mapping,"1.2, 1.3",ADSL,"STRATwR where w is an integer [1-9, not zero-padded]","There is more than one value of STRATwR for a given value of STRATwRN, considering only those rows on which both variables are populated",TRUE,Cross-record consistency; generally dataset-local. Requires duplicate-key fixtures with conflicting mapped values.,PR REVIEW,Richard,https://github.com/verisianHQ/core-contributor/pull/765,
AD0473,,Conditional bidirectional value mapping,"1.2, 1.3",ADSL,"STRATwRN where w is an integer [1-9, not zero-padded]","There is more than one value of STRATwRN for a given value of STRATwR, considering only those rows on which both variables are populated",TRUE,Cross-record consistency; generally dataset-local. Requires duplicate-key fixtures with conflicting mapped values.,PR REVIEW,Richard,https://github.com/verisianHQ/core-contributor/pull/765,
AD0474,,Same-record paired population,"1.2, 1.3",ADSL,STRATAVN,"On a given record, STRATAV is populated and STRATAVN is not populated",TRUE,Record data; wildcard/index captures often required. Includes reciprocal pairs as separate Rule IDs. **144/144 implemented.**,PR REVIEW,Richard,https://github.com/verisianHQ/core-contributor/pull/762,
AD0475,,Same-record paired population,"1.2, 1.3",ADSL,STRATAV,"On a given record, STRATAVN is populated and STRATAV is not populated",TRUE,Record data; wildcard/index captures often required. Includes reciprocal pairs as separate Rule IDs. **144/144 implemented.**,PR REVIEW,Richard,https://github.com/verisianHQ/core-contributor/pull/762,
AD0476,,Conditional bidirectional value mapping,"1.2, 1.3",ADSL,STRATAV,"There is more than one value of STRATAV for a given value of STRATAVN, considering only those rows on which both variables are populated",TRUE,Cross-record consistency; generally dataset-local. Requires duplicate-key fixtures with conflicting mapped values.,PR REVIEW,Richard,https://github.com/verisianHQ/core-contributor/pull/765,
AD0477,,Conditional bidirectional value mapping,"1.2, 1.3",ADSL,STRATAVN,"There is more than one value of STRATAVN for a given value of STRATAV, considering only those rows on which both variables are populated",TRUE,Cross-record consistency; generally dataset-local. Requires duplicate-key fixtures with conflicting mapped values.,PR REVIEW,Richard,https://github.com/verisianHQ/core-contributor/pull/765,
AD0478,,Same-record paired population,"1.2, 1.3",ADSL,"STRATwVN where w is an integer [1-9, not zero-padded]","On a given record, STRATwV is populated and STRATwVN is not populated",TRUE,Record data; wildcard/index captures often required. Includes reciprocal pairs as separate Rule IDs. **144/144 implemented.**,PR REVIEW,Richard,https://github.com/verisianHQ/core-contributor/pull/762,
AD0479,,Same-record paired population,"1.2, 1.3",ADSL,"STRATwV where w is an integer [1-9, not zero-padded]","On a given record, STRATwVN is populated and STRATwV is not populated",TRUE,Record data; wildcard/index captures often required. Includes reciprocal pairs as separate Rule IDs. **144/144 implemented.**,PR REVIEW,Richard,https://github.com/verisianHQ/core-contributor/pull/762,
AD0480,,Conditional bidirectional value mapping,"1.2, 1.3",ADSL,"STRATwV where w is an integer [1-9, not zero-padded]","There is more than one value of STRATwV for a given value of STRATwVN, considering only those rows on which both variables are populated",TRUE,Cross-record consistency; generally dataset-local. Requires duplicate-key fixtures with conflicting mapped values.,PR REVIEW,Richard,https://github.com/verisianHQ/core-contributor/pull/765,
AD0481,,Conditional bidirectional value mapping,"1.2, 1.3",ADSL,"STRATwVN where w is an integer [1-9, not zero-padded]","There is more than one value of STRATwVN for a given value of STRATwV, considering only those rows on which both variables are populated",TRUE,Cross-record consistency; generally dataset-local. Requires duplicate-key fixtures with conflicting mapped values.,PR REVIEW,Richard,https://github.com/verisianHQ/core-contributor/pull/765,
AD0482,,Same-record paired population,"1.2, 1.3",BDS;MDBDS,"BCHGCAyN where y is an integer [1-9, not zero-padded]","On a given record, BCHGCATy is populated and BCHGCAyN is not populated",TRUE,Record data; wildcard/index captures often required. Includes reciprocal pairs as separate Rule IDs. **144/144 implemented.**,PR REVIEW,Richard,https://github.com/verisianHQ/core-contributor/pull/762,
AD0483,,Same-record paired population,"1.2, 1.3",BDS;MDBDS,"BCHGCATy where y is an integer [1-9, not zero-padded]","On a given record, BCHGCAyN is populated and BCHGCATy is not populated",TRUE,Record data; wildcard/index captures often required. Includes reciprocal pairs as separate Rule IDs. **144/144 implemented.**,PR REVIEW,Richard,https://github.com/verisianHQ/core-contributor/pull/762,
AD0484,,Same-record paired population,"1.2, 1.3",BDS;MDBDS,"PBCHGCyN where y is an integer [1-9, not zero-padded]","On a given record, PBCHGCAy is populated and PBCHGCyN is not populated",TRUE,Record data; wildcard/index captures often required. Includes reciprocal pairs as separate Rule IDs. **144/144 implemented.**,PR REVIEW,Richard,https://github.com/verisianHQ/core-contributor/pull/762,
AD0485,,Same-record paired population,"1.2, 1.3",BDS;MDBDS,"PBCHGCAy where y is an integer [1-9, not zero-padded]","On a given record, PBCHGCyN is populated and PBCHGCAy is not populated",TRUE,Record data; wildcard/index captures often required. Includes reciprocal pairs as separate Rule IDs. **144/144 implemented.**,PR REVIEW,Richard,https://github.com/verisianHQ/core-contributor/pull/762,
AD0486,,Same-record paired population,"1.2, 1.3",BDS;OCCDS;MDBDS;MDODDS,"CRITyFN where y is an integer [1-99, not zero-padded]","On a given record, CRITyFL is populated and CRITyFN is not populated",TRUE,Record data; wildcard/index captures often required. Includes reciprocal pairs as separate Rule IDs. **144/144 implemented.**,PR REVIEW,Richard,https://github.com/verisianHQ/core-contributor/pull/762,
AD0487,,Same-record paired population,"1.2, 1.3",BDS;OCCDS;MDBDS;MDODDS,"CRITyFL where y is an integer [1-99, not zero-padded]","On a given record, CRITyFN is populated and CRITyFL is not populated",TRUE,Record data; wildcard/index captures often required. Includes reciprocal pairs as separate Rule IDs. **144/144 implemented.**,PR REVIEW,Richard,https://github.com/verisianHQ/core-contributor/pull/762,
AD0488,,Same-record paired population,"1.2, 1.3",BDS;OCCDS;MDBDS;MDODDS,ONTRTFN,"On a given record, ONTRTFL is populated and ONTRTFN is not populated",TRUE,Record data; wildcard/index captures often required. Includes reciprocal pairs as separate Rule IDs. **144/144 implemented.**,PR REVIEW,Richard,https://github.com/verisianHQ/core-contributor/pull/762,
AD0489,,Same-record paired population,"1.2, 1.3",BDS;OCCDS;MDBDS;MDODDS,ONTRTFL,"On a given record, ONTRTFN is populated and ONTRTFL is not populated",TRUE,Record data; wildcard/index captures often required. Includes reciprocal pairs as separate Rule IDs. **144/144 implemented.**,PR REVIEW,Richard,https://github.com/verisianHQ/core-contributor/pull/762,
AD0490,,Same-record paired population,"1.2, 1.3",BDS;OCCDS;MDBDS;MDODDS,LVOTFN,"On a given record, LVOTFL is populated and LVOTFN is not populated",TRUE,Record data; wildcard/index captures often required. Includes reciprocal pairs as separate Rule IDs. **144/144 implemented.**,PR REVIEW,Richard,https://github.com/verisianHQ/core-contributor/pull/762,
AD0491,,Same-record paired population,"1.2, 1.3",BDS;OCCDS;MDBDS;MDODDS,LVOTFL,"On a given record, LVOTFN is populated and LVOTFL is not populated",TRUE,Record data; wildcard/index captures often required. Includes reciprocal pairs as separate Rule IDs. **144/144 implemented.**,PR REVIEW,Richard,https://github.com/verisianHQ/core-contributor/pull/762,
AD0492,,,"1.2, 1.3",BDS;MDBDS,"SHIFTy where y is an integer [1-99, not zero-padded]","SHIFTy is present and all of the following variable pairs (BASECATy, AVALCATy), (BNRIND, ANRIND), (ByIND, AyIND), (BTOXGR, ATOXGR), (BTOXGRL, ATOXGRL), (BTOXGRH, ATOXGRH), (BASE, AVAL) and (BASEC, AVALC) are not present",TRUE,,PR REVIEW,Richard,https://github.com/verisianHQ/core-contributor/pull/798,
AD0493,,Flag may not equal N,"1.2, 1.3",BDS;MDBDS,"ANLzzFL where zz is an integer [01-99, zero-padded]","ANLzzFL is equal to ""N"" where zz is a zero-padded two-digit integer [01-99]",TRUE,Unconditional record-value restriction.,,,,
AD0494,,Flag may not equal N,"1.2, 1.3",BDS;MDBDS,ABLFL,"ABLFL is equal to ""N""",TRUE,Unconditional record-value restriction.,,,,
AD0496,,Reciprocal dataset class/name consistency,"1.0, 1.1, 1.2, 1.3",ALL,,"A dataset name does not start with ""AD"" when dataset class is not missing",TRUE,Dataset metadata reciprocal pair.,,,,
AD0497,,Reciprocal dataset class/name consistency,"1.1, 1.2, 1.3",ALL,,"A dataset name starts with ""AD"" when the dataset class is missing",TRUE,Dataset metadata reciprocal pair.,,,,
AD0498,,,"1.2, 1.3",ALL,APERIOD; ASPER,"For every unique combination of a w value of ASPER and xx value of APERIOD in BDS or OCCDS datasets, there is not a variable PxxSw",TRUE,,,,,
AD0499,,Conditional metadata companion existence,"1.2, 1.3",BDS;OCCDS;MDBDS;MDODDS,ASPER,ASPER is present and APERIOD is not present,TRUE,"""Variable-metadata check; fixtures need column definitions, not populated records.""",PR REVIEW,Enrico,https://github.com/verisianHQ/core-contributor/pull/755,
AD0500,,,"1.2, 1.3",BDS;OCCDS;MDBDS;MDODDS,APHASE,There is a value of APHASE without a matching value in an ADSL variable APHASEw,TRUE,,PR REVIEW,Richard,https://github.com/verisianHQ/core-contributor/pull/798,
AD0501,,Same-record paired population,"1.2, 1.3",BDS;OCCDS;MDBDS;MDODDS,APERIOD,"On a given record, ASPER is populated and APERIOD is not populated",FALSE,Record data; wildcard/index captures often required. Includes reciprocal pairs as separate Rule IDs. **144/144 implemented.**,PR REVIEW,Richard,https://github.com/verisianHQ/core-contributor/pull/762,
AD0503,,Variable suffix-to-label convention,"1.1, 1.2, 1.3",ALL,*DT,"A variable ending in DT must contain ""Date"" in the label",FALSE,Variable metadata; suffix regex plus case-insensitive label matching.,PR REVIEW,Richard,https://github.com/verisianHQ/core-contributor/pull/751,
AD0504,,Variable suffix-to-label convention,"1.1, 1.2, 1.3",ALL,*TM,"A variable ending in TM must contain ""Time"" in the label",TRUE,Variable metadata; suffix regex plus case-insensitive label matching.,PR REVIEW,Richard,https://github.com/verisianHQ/core-contributor/pull/751,
AD0505,,Variable suffix-to-label convention,"1.1, 1.2, 1.3",ALL,*DTM,"A variable ending in DTM must contain ""Datetime"" in the label",FALSE,Variable metadata; suffix regex plus case-insensitive label matching.,PR REVIEW,Richard,https://github.com/verisianHQ/core-contributor/pull/751,
AD0506,,Variable suffix-to-label convention,"1.1, 1.2, 1.3",ALL,*ADY,"A variable ending in ADY must contain ""Relative Day"" in the label",FALSE,Variable metadata; suffix regex plus case-insensitive label matching.,PR REVIEW,Richard,https://github.com/verisianHQ/core-contributor/pull/751,
AD0507,,Variable suffix-to-label convention,"1.1, 1.2, 1.3",ALL,*DTF,"A variable ending in DTF must contain ""Date Imputation Flag"" in the label",FALSE,Variable metadata; suffix regex plus case-insensitive label matching.,PR REVIEW,Richard,https://github.com/verisianHQ/core-contributor/pull/751,
AD0508,,Variable suffix-to-label convention,"1.1, 1.2, 1.3",ALL,*TMF,"A variable ending in TMF must contain ""Time Imputation Flag"" in the label",TRUE,Variable metadata; suffix regex plus case-insensitive label matching.,PR REVIEW,Richard,https://github.com/verisianHQ/core-contributor/pull/755,
AD0509,,Variable suffix-to-label convention,"1.1, 1.2, 1.3",ALL,*SDT,"A variable ending in SDT must contain ""Start Date"" in the label",FALSE,Variable metadata; suffix regex plus case-insensitive label matching.,PR REVIEW,Richard,https://github.com/verisianHQ/core-contributor/pull/751,
AD0510,,Variable suffix-to-label convention,"1.1, 1.2, 1.3",ALL,*STM,"A variable ending in STM must contain ""Start Time"" in the label",TRUE,Variable metadata; suffix regex plus case-insensitive label matching.,PR REVIEW,Richard,https://github.com/verisianHQ/core-contributor/pull/751,
AD0511,,Variable suffix-to-label convention,"1.1, 1.2, 1.3",ALL,*SDTM,"A variable ending in SDTM must contain ""Start Datetime"" in the label",TRUE,Variable metadata; suffix regex plus case-insensitive label matching.,PR REVIEW,Richard,https://github.com/verisianHQ/core-contributor/pull/751,
AD0512,,Variable suffix-to-label convention,"1.1, 1.2, 1.3",ALL,*SDY,"A variable ending in SDY must contain ""Relative Start Day"" in the label",TRUE,Variable metadata; suffix regex plus case-insensitive label matching.,PR REVIEW,Richard,https://github.com/verisianHQ/core-contributor/pull/751,
AD0513,,Variable suffix-to-label convention,"1.1, 1.2, 1.3",ALL,*SDTF,"A variable ending in SDTF must contain ""Start Date Imputation Flag"" in the label",TRUE,Variable metadata; suffix regex plus case-insensitive label matching.,PR REVIEW,Richard,https://github.com/verisianHQ/core-contributor/pull/751,
AD0514,,Variable suffix-to-label convention,"1.1, 1.2, 1.3",ALL,*STMF,"A variable ending in STMF must contain ""Start Time Imputation Flag"" in the label",TRUE,Variable metadata; suffix regex plus case-insensitive label matching.,PR REVIEW,Richard,https://github.com/verisianHQ/core-contributor/pull/751,
AD0515,,Variable suffix-to-label convention,"1.1, 1.2, 1.3",ALL,*EDT,"A variable ending in EDT must contain ""End Date"" in the label",TRUE,Variable metadata; suffix regex plus case-insensitive label matching.,PR REVIEW,Richard,https://github.com/verisianHQ/core-contributor/pull/751,
AD0516,,Variable suffix-to-label convention,"1.1, 1.2, 1.3",ALL,*ETM,"A variable ending in ETM must contain ""End Time"" in the label",TRUE,Variable metadata; suffix regex plus case-insensitive label matching.,PR REVIEW,Richard,https://github.com/verisianHQ/core-contributor/pull/751,
AD0517,,Variable suffix-to-label convention,"1.1, 1.2, 1.3",ALL,*EDTM,"A variable ending in EDTM must contain ""End Datetime"" in the label",TRUE,Variable metadata; suffix regex plus case-insensitive label matching.,PR REVIEW,Richard,https://github.com/verisianHQ/core-contributor/pull/751,
AD0518,,Variable suffix-to-label convention,"1.1, 1.2, 1.3",ALL,*EDY,"A variable ending in EDY must contain ""Relative End Day"" in the label",TRUE,Variable metadata; suffix regex plus case-insensitive label matching.,PR REVIEW,Richard,https://github.com/verisianHQ/core-contributor/pull/751,
AD0519,,Variable suffix-to-label convention,"1.1, 1.2, 1.3",ALL,*EDTF,"A variable ending in EDTF must contain ""End Date Imputation Flag"" in the label",TRUE,Variable metadata; suffix regex plus case-insensitive label matching.,PR REVIEW,Richard,https://github.com/verisianHQ/core-contributor/pull/751,
AD0520,,Variable suffix-to-label convention,"1.1, 1.2, 1.3",ALL,*ETMF,"A variable ending in ETMF must contain ""End Time Imputation Flag"" in the label",TRUE,Variable metadata; suffix regex plus case-insensitive label matching.,PR REVIEW,Richard,https://github.com/verisianHQ/core-contributor/pull/751,
AD0521,,,"1.1, 1.2, 1.3",ALL,,A variable which has a suffix of GRyN is present and a variable with the same root name and suffix of GRy is not present,TRUE,,PR REVIEW,Richard,https://github.com/verisianHQ/core-contributor/pull/798,
AD0522,,Conditional metadata companion existence,"1.1, 1.2, 1.3",BDS;MDBDS,BTOXGRN,BTOXGRN is present and BTOXGR is not present,TRUE,"""Variable-metadata check; fixtures need column definitions, not populated records.""",PR REVIEW,Enrico,https://github.com/verisianHQ/core-contributor/pull/755,
AD0523,,Conditional metadata companion existence,"1.1, 1.2, 1.3",BDS;MDBDS,ATOXGRLN,ATOXGRLN is present and ATOXGRL is not present,TRUE,"""Variable-metadata check; fixtures need column definitions, not populated records.""",PR REVIEW,Enrico,https://github.com/verisianHQ/core-contributor/pull/755,
AD0524,,Conditional metadata companion existence,"1.1, 1.2, 1.3",BDS;MDBDS,ATOXGRHN,ATOXGRHN is present and ATOXGRH is not present,TRUE,"""Variable-metadata check; fixtures need column definitions, not populated records.""",PR REVIEW,Enrico,https://github.com/verisianHQ/core-contributor/pull/755,
AD0525,,Conditional metadata companion existence,"1.1, 1.2, 1.3",BDS;MDBDS,ABLFN,ABLFN is present and ABLFL is not present,TRUE,"""Variable-metadata check; fixtures need column definitions, not populated records.""",PR REVIEW,Enrico,https://github.com/verisianHQ/core-contributor/pull/755,
AD0526,,Conditional metadata companion existence,"1.1, 1.2, 1.3",BDS;OCCDS;MDBDS;MDODDS,"ANLzzFN where zz is an integer [01-99, zero-padded]",ANLzzFN is present and ANLzzFL is not present,TRUE,"""Variable-metadata check; fixtures need column definitions, not populated records.""",PR REVIEW,Enrico,https://github.com/verisianHQ/core-contributor/pull/755,
AD0527,,Conditional metadata companion existence,"1.1, 1.2, 1.3",ADSL,TRTSEQPN,TRTSEQPN is present and TRTSEQP is not present,TRUE,"""Variable-metadata check; fixtures need column definitions, not populated records.""",PR REVIEW,Enrico,https://github.com/verisianHQ/core-contributor/pull/755,
AD0528,,Conditional metadata companion existence,"1.1, 1.2, 1.3",ADSL,TRTSEQAN,TRTSEQAN is present and TRTSEQA is not present,TRUE,"""Variable-metadata check; fixtures need column definitions, not populated records.""",PR REVIEW,Enrico,https://github.com/verisianHQ/core-contributor/pull/755,
AD0529,,Conditional metadata companion existence,"1.1, 1.2, 1.3",OCCDS;MDODDS,AESEVN,AESEVN is present and AESEV is not present,FALSE,"""Variable-metadata check; fixtures need column definitions, not populated records.""",PR REVIEW,Enrico,https://github.com/verisianHQ/core-contributor/pull/755,
AD0530,,Conditional metadata companion existence,"1.1, 1.2, 1.3",OCCDS;MDODDS,ASEVN,ASEVN is present and ASEV is not present,TRUE,"""Variable-metadata check; fixtures need column definitions, not populated records.""",PR REVIEW,Enrico,https://github.com/verisianHQ/core-contributor/pull/755,
AD0531,,Conditional metadata companion existence,"1.1, 1.2, 1.3",OCCDS;MDODDS,"SEVGRyN where y is an integer [1-99, not zero-padded]",SEVGRyN is present and SEVGRy is not present,TRUE,"""Variable-metadata check; fixtures need column definitions, not populated records.""",PR REVIEW,Enrico,https://github.com/verisianHQ/core-contributor/pull/755,
AD0532,,Conditional metadata companion existence,"1.1, 1.2, 1.3",OCCDS;MDODDS,AERELN,AERELN is present and AEREL is not present,TRUE,"""Variable-metadata check; fixtures need column definitions, not populated records.""",PR REVIEW,Enrico,https://github.com/verisianHQ/core-contributor/pull/755,
AD0533,,Conditional metadata companion existence,"1.1, 1.2, 1.3",OCCDS;MDODDS,ARELN,ARELN is present and AREL is not present,TRUE,"""Variable-metadata check; fixtures need column definitions, not populated records.""",PR REVIEW,Enrico,https://github.com/verisianHQ/core-contributor/pull/755,
AD0534,,Conditional metadata companion existence,"1.1, 1.2, 1.3",OCCDS;MDODDS,"RELGRyN where y is an integer [1-99, not zero-padded]",RELGRyN is present and RELGRy is not present,TRUE,"""Variable-metadata check; fixtures need column definitions, not populated records.""",PR REVIEW,Enrico,https://github.com/verisianHQ/core-contributor/pull/755,
AD0535,,Conditional metadata companion existence,"1.1, 1.2, 1.3",OCCDS;MDODDS,AETOXGRN,AETOXGRN is present and AETOXGR is not present,TRUE,"""Variable-metadata check; fixtures need column definitions, not populated records.""",PR REVIEW,Enrico,https://github.com/verisianHQ/core-contributor/pull/755,
AD0536,,Conditional metadata companion existence,"1.1, 1.2, 1.3",OCCDS;MDODDS,ATOXGRN,ATOXGRN is present and ATOXGR is not present,TRUE,"""Variable-metadata check; fixtures need column definitions, not populated records.""",PR REVIEW,Enrico,https://github.com/verisianHQ/core-contributor/pull/755,
AD0537,,Conditional metadata companion existence,"1.1, 1.2, 1.3",OCCDS;MDODDS,"TOXGGRyN where y is an integer [1-9, not zero-padded]",TOXGGRyN is present and TOXGGRy is not present,TRUE,"""Variable-metadata check; fixtures need column definitions, not populated records.""",PR REVIEW,Enrico,https://github.com/verisianHQ/core-contributor/pull/755,
AD0538,,Conditional metadata companion existence,"1.1, 1.2, 1.3",OCCDS;MDODDS,"SMQzzSCN where zz is an integer [01-99, zero-padded]",SMQzzSCN is present and SMQzzSC is not present,TRUE,"""Variable-metadata check; fixtures need column definitions, not populated records.""",PR REVIEW,Enrico,https://github.com/verisianHQ/core-contributor/pull/755,
AD0539,,Conditional metadata companion existence,"1.2, 1.3",BDS;OCCDS;MDBDS;MDODDS,APERIODC,APERIODC is present and APERIOD is not present,TRUE,"""Variable-metadata check; fixtures need column definitions, not populated records.""",PR REVIEW,Enrico,https://github.com/verisianHQ/core-contributor/pull/755,
AD0540,,Conditional metadata companion existence,"1.1, 1.2, 1.3",BDS;OCCDS;MDBDS;MDODDS,APHASEN,APHASEN is present and APHASE is not present,TRUE,"""Variable-metadata check; fixtures need column definitions, not populated records.""",PR REVIEW,Enrico,https://github.com/verisianHQ/core-contributor/pull/755,
AD0541,,Conditional metadata companion existence,"1.2, 1.3",BDS;OCCDS;MDBDS;MDODDS,ASPERC,ASPERC is present and ASPER is not present,TRUE,"""Variable-metadata check; fixtures need column definitions, not populated records.""",PR REVIEW,Enrico,https://github.com/verisianHQ/core-contributor/pull/755,
AD0542,,Conditional metadata companion existence,"1.1, 1.2, 1.3",BDS;OCCDS;MDBDS;MDODDS,ATPTN,ATPTN is present and ATPT is not present,TRUE,"""Variable-metadata check; fixtures need column definitions, not populated records.""",PR REVIEW,Enrico,https://github.com/verisianHQ/core-contributor/pull/755,
AD0543,,Conditional metadata companion existence,"1.1, 1.2, 1.3",BDS;MDBDS,"AVALCAyN where y is an integer [1-9, not zero-padded]",AVALCAyN is present and AVALCATy is not present,TRUE,"""Variable-metadata check; fixtures need column definitions, not populated records.""",PR REVIEW,Enrico,https://github.com/verisianHQ/core-contributor/pull/755,
AD0544,,Conditional metadata companion existence,"1.1, 1.2, 1.3",BDS;MDBDS,"BASECAyN where y is an integer [1-9, not zero-padded]",BASECAyN is present and BASECATy is not present,TRUE,"""Variable-metadata check; fixtures need column definitions, not populated records.""",PR REVIEW,Enrico,https://github.com/verisianHQ/core-contributor/pull/755,
AD0545,,Conditional metadata companion existence,"1.1, 1.2, 1.3",BDS;MDBDS,"CHGCATyN where y is an integer [1-9, not zero-padded]",CHGCATyN is present and CHGCATy is not present,TRUE,"""Variable-metadata check; fixtures need column definitions, not populated records.""",PR REVIEW,Enrico,https://github.com/verisianHQ/core-contributor/pull/755,
AD0546,,Conditional metadata companion existence,"1.1, 1.2, 1.3",BDS;MDBDS,"PCHGCAyN where y is an integer [1-9, not zero-padded]",PCHGCAyN is present and PCHGCATy is not present,TRUE,"""Variable-metadata check; fixtures need column definitions, not populated records.""",PR REVIEW,Enrico,https://github.com/verisianHQ/core-contributor/pull/755,
AD0547,,Conditional metadata companion existence,"1.1, 1.2, 1.3",BDS;MDBDS,"PARCATyN where y is an integer [1-9, not zero-padded]",PARCATyN is present and PARCATy is not present,TRUE,"""Variable-metadata check; fixtures need column definitions, not populated records.""",PR REVIEW,Enrico,https://github.com/verisianHQ/core-contributor/pull/755,
AD0548,,Conditional metadata companion existence,"1.1, 1.2, 1.3",BDS;OCCDS;MDBDS;MDODDS,AVISITN,AVISITN is present and AVISIT is not present,TRUE,"""Variable-metadata check; fixtures need column definitions, not populated records.""",PR REVIEW,Enrico,https://github.com/verisianHQ/core-contributor/pull/755,
AD0549,,Conditional metadata companion existence,"1.2, 1.3",BDS;MDBDS,BTOXGRHN,BTOXGRHN is present and BTOXGRH is not present,TRUE,"""Variable-metadata check; fixtures need column definitions, not populated records.""",PR REVIEW,Enrico,https://github.com/verisianHQ/core-contributor/pull/755,
AD0550,,Conditional metadata companion existence,"1.2, 1.3",BDS;MDBDS,BTOXGRLN,BTOXGRLN is present and BTOXGRL is not present,TRUE,"""Variable-metadata check; fixtures need column definitions, not populated records.""",PR REVIEW,Enrico,https://github.com/verisianHQ/core-contributor/pull/755,
AD0551,,Conditional metadata companion existence,"1.1, 1.2, 1.3",ADSL,DTHCAUSN,DTHCAUSN is present and DTHCAUS is not present,TRUE,"""Variable-metadata check; fixtures need column definitions, not populated records.""",PR REVIEW,Enrico,https://github.com/verisianHQ/core-contributor/pull/755,
AD0552,,Conditional metadata companion existence,"1.1, 1.2, 1.3",BDS;OCCDS;MDBDS;MDODDS,"MCRITyMN where y is an integer [1-9, not zero-padded]",MCRITyMN is present and MCRITyML is not present,TRUE,"""Variable-metadata check; fixtures need column definitions, not populated records.""",PR REVIEW,Enrico,https://github.com/verisianHQ/core-contributor/pull/755,
AD0553,,Conditional metadata companion existence,"1.1, 1.2, 1.3",ADSL,"REGIONyN where y is an integer [1-9, not zero-padded]",REGIONyN is present and REGIONy is not present,TRUE,"""Variable-metadata check; fixtures need column definitions, not populated records.""",PR REVIEW,Enrico,https://github.com/verisianHQ/core-contributor/pull/755,
AD0554,,Conditional metadata companion existence,"1.1, 1.2, 1.3",BDS;OCCDS;MDBDS;MDODDS,"SHIFTyN where y is an integer [1-99, not zero-padded]",SHIFTyN is present and SHIFTy is not present,TRUE,"""Variable-metadata check; fixtures need column definitions, not populated records.""",PR REVIEW,Enrico,https://github.com/verisianHQ/core-contributor/pull/755,
AD0555,,Conditional metadata companion existence,"1.1, 1.2, 1.3",BDS;OCCDS;MDBDS;MDODDS,TRTAN,TRTAN is present and TRTA is not present,TRUE,"""Variable-metadata check; fixtures need column definitions, not populated records.""",PR REVIEW,Enrico,https://github.com/verisianHQ/core-contributor/pull/755,
AD0556,,Conditional metadata companion existence,"1.1, 1.2, 1.3",BDS;OCCDS;MDBDS;MDODDS,TRTPN,TRTPN is present and TRTP is not present,TRUE,"""Variable-metadata check; fixtures need column definitions, not populated records.""",PR REVIEW,Enrico,https://github.com/verisianHQ/core-contributor/pull/755,
AD0557,,Conditional metadata companion existence,"1.1, 1.2, 1.3",ADSL,"TSEQPGyN where y is an integer [1-9, not zero-padded]",TSEQPGyN is present and TSEQPGy is not present,TRUE,"""Variable-metadata check; fixtures need column definitions, not populated records.""",PR REVIEW,Enrico,https://github.com/verisianHQ/core-contributor/pull/755,
AD0558,,Conditional metadata companion existence,"1.1, 1.2, 1.3",ADSL,"TSEQAGyN where y is an integer [1-9, not zero-padded]",TSEQAGyN is present and TSEQAGy is not present,TRUE,"""Variable-metadata check; fixtures need column definitions, not populated records.""",PR REVIEW,Enrico,https://github.com/verisianHQ/core-contributor/pull/755,
AD0559,,Conditional metadata companion existence,"1.1, 1.2, 1.3",ADSL,"TRCMPGyN where y is an integer [1-9, not zero-padded]",TRCMPGyN is present and TRCMPGy is not present,TRUE,"""Variable-metadata check; fixtures need column definitions, not populated records.""",PR REVIEW,Enrico,https://github.com/verisianHQ/core-contributor/pull/755,
AD0560,,Conditional metadata companion existence,"1.2, 1.3",ADSL,STRATARN,STRATARN is present and STRATAR is not present,TRUE,"""Variable-metadata check; fixtures need column definitions, not populated records.""",PR REVIEW,Enrico,https://github.com/verisianHQ/core-contributor/pull/755,
AD0561,,Conditional metadata companion existence,"1.2, 1.3",ADSL,"STRATwRN where w is an integer [1-9, not zero-padded]","STRATwRN is present and STRATwR is not present for the same value of ""w""",TRUE,"""Variable-metadata check; fixtures need column definitions, not populated records.""",PR REVIEW,Enrico,https://github.com/verisianHQ/core-contributor/pull/755,
AD0562,,Conditional metadata companion existence,"1.2, 1.3",ADSL,STRATAVN,STRATAVN is present and STRATAV is not present,TRUE,"""Variable-metadata check; fixtures need column definitions, not populated records.""",PR REVIEW,Enrico,https://github.com/verisianHQ/core-contributor/pull/755,
AD0563,,Conditional metadata companion existence,"1.2, 1.3",ADSL,"STRATwVN where w is an integer [1-9, not zero-padded]","STRATwVN is present and STRATwV is not present for the same value of ""w""",TRUE,"""Variable-metadata check; fixtures need column definitions, not populated records.""",PR REVIEW,Enrico,https://github.com/verisianHQ/core-contributor/pull/755,
AD0565,,Conditional metadata companion existence,"1.2, 1.3",BDS;MDBDS,"BCHGCAyN where y is an integer [1-9, not zero-padded]",BCHGCAyN is present and BCHGCATy is not present,TRUE,"""Variable-metadata check; fixtures need column definitions, not populated records.""",PR REVIEW,Enrico,https://github.com/verisianHQ/core-contributor/pull/755,
AD0566,,Conditional metadata companion existence,"1.2, 1.3",BDS;MDBDS,"PBCHGCyN where y is an integer [1-9, not zero-padded]",PBCHGCyN is present and PBCHGCAy is not present,TRUE,"""Variable-metadata check; fixtures need column definitions, not populated records.""",PR REVIEW,Enrico,https://github.com/verisianHQ/core-contributor/pull/755,
AD0567,,Conditional metadata companion existence,"1.1, 1.2, 1.3",BDS;OCCDS;MDBDS;MDODDS,"CRITyFN where y is an integer [1-99, not zero-padded]",CRITyFN is present and CRITyFL is not present,TRUE,"""Variable-metadata check; fixtures need column definitions, not populated records.""",PR REVIEW,Enrico,https://github.com/verisianHQ/core-contributor/pull/755,
AD0568,,Conditional metadata companion existence,"1.1, 1.2, 1.3",BDS;OCCDS;MDBDS;MDODDS,ONTRTFN,ONTRTFN is present and ONTRTFL is not present,TRUE,"""Variable-metadata check; fixtures need column definitions, not populated records.""",PR REVIEW,Enrico,https://github.com/verisianHQ/core-contributor/pull/755,
AD0569,,Conditional metadata companion existence,"1.1, 1.2, 1.3",BDS;OCCDS;MDBDS;MDODDS,LVOTFN,LVOTFN is present and LVOTFL is not present,TRUE,"""Variable-metadata check; fixtures need column definitions, not populated records.""",PR REVIEW,Enrico,https://github.com/verisianHQ/core-contributor/pull/755,
AD0570,,Conditional metadata companion existence,"1.2, 1.3",ADSL,"PxxSw where xx is an integer [01-99, zero-padded] and w is an integer [1-9, not zero-padded]","PxxSw is present and TRTxxP is not present for the same ""xx"" value",TRUE,"""Variable-metadata check; fixtures need column definitions, not populated records.""",PR REVIEW,Enrico,https://github.com/verisianHQ/core-contributor/pull/755,
AD0571,,Conditional metadata companion existence,"1.2, 1.3",ADSL,"PxxSwSDT where xx is an integer [01-99, zero-padded] and w is an integer [1-9, not zero-padded]","PxxSwSDT is present and TRTxxP is not present for the same ""xx"" value",TRUE,"""Variable-metadata check; fixtures need column definitions, not populated records.""",PR REVIEW,Enrico,https://github.com/verisianHQ/core-contributor/pull/755,
AD0572,,Conditional metadata companion existence,"1.2, 1.3",ADSL,"PxxSwSDM where xx is an integer [01-99, zero-padded] and w is an integer [1-9, not zero-padded]","PxxSwSDM is present and TRTxxP is not present for the same ""xx"" value",TRUE,"""Variable-metadata check; fixtures need column definitions, not populated records.""",PR REVIEW,Enrico,https://github.com/verisianHQ/core-contributor/pull/755,
AD0573,,Conditional metadata companion existence,"1.2, 1.3",ADSL,"PxxSwSTM where xx is an integer [01-99, zero-padded] and w is an integer [1-9, not zero-padded]","PxxSwSTM is present and TRTxxP is not present for the same ""xx"" value",TRUE,"""Variable-metadata check; fixtures need column definitions, not populated records.""",PR REVIEW,Enrico,https://github.com/verisianHQ/core-contributor/pull/755,
AD0574,,Conditional metadata companion existence,"1.2, 1.3",ADSL,"PxxSwSDF where xx is an integer [01-99, zero-padded] and w is an integer [1-9, not zero-padded]","PxxSwSDF is present and TRTxxP is not present for the same ""xx"" value",TRUE,"""Variable-metadata check; fixtures need column definitions, not populated records.""",PR REVIEW,Enrico,https://github.com/verisianHQ/core-contributor/pull/755,
AD0575,,Conditional metadata companion existence,"1.2, 1.3",ADSL,"PxxSwSTF where xx is an integer [01-99, zero-padded] and w is an integer [1-9, not zero-padded]","PxxSwSTF is present and TRTxxP is not present for the same ""xx"" value",TRUE,"""Variable-metadata check; fixtures need column definitions, not populated records.""",PR REVIEW,Enrico,https://github.com/verisianHQ/core-contributor/pull/755,
AD0576,,Conditional metadata companion existence,"1.2, 1.3",ADSL,"PxxSwEDT where xx is an integer [01-99, zero-padded] and w is an integer [1-9, not zero-padded]","PxxSwEDT is present and TRTxxP is not present for the same ""xx"" value",TRUE,"""Variable-metadata check; fixtures need column definitions, not populated records.""",PR REVIEW,Enrico,https://github.com/verisianHQ/core-contributor/pull/755,
AD0577,,Conditional metadata companion existence,"1.2, 1.3",ADSL,"PxxSwEDM where xx is an integer [01-99, zero-padded] and w is an integer [1-9, not zero-padded]","PxxSwEDM is present and TRTxxP is not present for the same ""xx"" value",TRUE,"""Variable-metadata check; fixtures need column definitions, not populated records.""",PR REVIEW,Enrico,https://github.com/verisianHQ/core-contributor/pull/755,
AD0578,,Conditional metadata companion existence,"1.2, 1.3",ADSL,"PxxSwETM where xx is an integer [01-99, zero-padded] and w is an integer [1-9, not zero-padded]","PxxSwETM is present and TRTxxP is not present for the same ""xx"" value",TRUE,"""Variable-metadata check; fixtures need column definitions, not populated records.""",PR REVIEW,Enrico,https://github.com/verisianHQ/core-contributor/pull/755,
AD0579,,Conditional metadata companion existence,"1.2, 1.3",ADSL,"PxxSwEDF where xx is an integer [01-99, zero-padded] and w is an integer [1-9, not zero-padded]","PxxSwEDF is present and TRTxxP is not present for the same ""xx"" value",TRUE,"""Variable-metadata check; fixtures need column definitions, not populated records.""",PR REVIEW,Enrico,https://github.com/verisianHQ/core-contributor/pull/755,
AD0580,,Conditional metadata companion existence,"1.2, 1.3",ADSL,"PxxSwETF where xx is an integer [01-99, zero-padded] and w is an integer [1-9, not zero-padded]","PxxSwETF is present and TRTxxP is not present for the same ""xx"" value",TRUE,"""Variable-metadata check; fixtures need column definitions, not populated records.""",PR REVIEW,Enrico,https://github.com/verisianHQ/core-contributor/pull/755,
AD0581,,,"1.1, 1.2, 1.3",BDS;MDBDS,,"None of TRTP, TRTPGy, TRTA, and TRTAGy are present and none of the character treatment variables in ADSL defined in the IG are present",TRUE,,PR REVIEW,Richard,https://github.com/verisianHQ/core-contributor/pull/755,
AD0582,,,"1.2, 1.3",BDS,BCHG,"Within a given value of PARAMCD for a subject, BCHG is populated and is not equal to BASE-AVAL",TRUE,,PR REVIEW,,https://github.com/verisianHQ/core-contributor/pull/755,
AD0583,,Group-qualified one-to-one mapping,"1.2, 1.3",BDS;MDBDS,"BCHGCATy where y is an integer [1-9, not zero-padded]","Within a given value of PARAMCD, there is more than one value of BCHGCATy for a given value of BCHG and y, where y is an integer [1-99, not zero-padded]",TRUE,Cross-record; grouping variable adds a partition beyond the key.,PR REVIEW,Maximo,https://github.com/verisianHQ/core-contributor/pull/755,
AD0584,,Parameter-qualified conditional mapping,"1.2, 1.3",BDS;MDBDS,"BCHGCATy where y is an integer [1-9, not zero-padded]","Within a parameter, there is more than one value of BCHGCATy for a given value of BCHGCAyN, considering only those rows on which both variables are populated",TRUE,Cross-record BDS-style check; fixtures need at least two parameters to prove partitioning.,PR REVIEW,Maximo,https://github.com/verisianHQ/core-contributor/pull/755,
AD0585,,Parameter-qualified conditional mapping,"1.2, 1.3",BDS;MDBDS,"BCHGCAyN where y is an integer [1-9, not zero-padded]","Within a parameter, there is more than one value of BCHGCAyN for a given value of BCHGCATy, considering only those rows on which both variables are populated",TRUE,Cross-record BDS-style check; fixtures need at least two parameters to prove partitioning.,PR REVIEW,Maximo,https://github.com/verisianHQ/core-contributor/pull/755,
AD0586,,,"1.2, 1.3",BDS,PBCHG,"Within a given value of PARAMCD for a subject, PBCHG is populated and is not equal to ((BASE-AVAL)/AVAL)*100",TRUE,,PR REVIEW,,https://github.com/verisianHQ/core-contributor/pull/755,
AD0587,,Group-qualified one-to-one mapping,"1.2, 1.3",BDS;MDBDS,"PBCHGCAy where y is an integer [1-9, not zero-padded]","Within a given value of PARAMCD, there is more than one value of PBCHGCAy for a given value of PBCHG and y, where y is a single-digit integer [1-9]",TRUE,Cross-record; grouping variable adds a partition beyond the key.,PR REVIEW,Maximo,https://github.com/verisianHQ/core-contributor/pull/755,
AD0588,,Parameter-qualified conditional mapping,"1.2, 1.3",BDS;MDBDS,"PBCHGCAy where y is an integer [1-9, not zero-padded]","Within a parameter, there is more than one value of PBCHGCAy for a given value of PBCHGCyN, considering only those rows on which both variables are populated",TRUE,Cross-record BDS-style check; fixtures need at least two parameters to prove partitioning.,PR REVIEW,Maximo,https://github.com/verisianHQ/core-contributor/pull/755,
AD0589,,Parameter-qualified conditional mapping,"1.2, 1.3",BDS;MDBDS,"PBCHGCyN where y is an integer [1-9, not zero-padded]","Within a parameter, there is more than one value of PBCHGCyN for a given value of PBCHGCAy, considering only those rows on which both variables are populated",FALSE,Cross-record BDS-style check; fixtures need at least two parameters to prove partitioning.,PR REVIEW,Maximo,https://github.com/verisianHQ/core-contributor/pull/776,
AD0590,,Cross-source data-type equality,"1.2, 1.3",ALL,ALL,A variable is present with the same name as a variable present in ADSL but the variables do not have identical data types,TRUE,"Cross-metadata comparison against SDTM, ADaM IG, or ADSL.",,,,
AD0591,,,"1.2, 1.3",ALL,ALL,A variable is present with the same name as a variable present in ADSL but the variables do not have identical values for a given value of USUBJID,TRUE,,,,,
AD0592,,Indexed record lookup equality,"1.2, 1.3",ALL,APERSDT,"On a given record, the value of APERSDT is not equal to the value of variable APxxSDT where xx equals the value of APERIOD",TRUE,Same-record dynamic variable lookup; fixture needs multiple indices.,,,,
AD0593,,Indexed record lookup equality,"1.2, 1.3",ALL,APERSTM,"On a given record, the value of APERSTM is not equal to the value of variable APxxSTM where xx equals the value of APERIOD",TRUE,Same-record dynamic variable lookup; fixture needs multiple indices.,,,,
AD0594,,Indexed record lookup equality,"1.2, 1.3",ALL,APERSDTM,"On a given record, the value of APERSDTM is not equal to the value of variable APxxSDTM where xx equals the value of APERIOD",TRUE,Same-record dynamic variable lookup; fixture needs multiple indices.,,,,
AD0595,,Indexed record lookup equality,"1.2, 1.3",ALL,APEREDT,"On a given record, the value of APEREDT is not equal to the value of variable APxxEDT where xx equals the value of APERIOD",TRUE,Same-record dynamic variable lookup; fixture needs multiple indices.,,,,
AD0596,,Indexed record lookup equality,"1.2, 1.3",ALL,APERETM,"On a given record, the value of APERETM is not equal to the value of variable APxxETM where xx equals the value of APERIOD",TRUE,Same-record dynamic variable lookup; fixture needs multiple indices.,,,,
AD0597,,Indexed record lookup equality,"1.2, 1.3",ALL,APEREDTM,"On a given record, the value of APEREDTM is not equal to the value of variable APxxEDTM where xx equals the value of APERIOD",TRUE,Same-record dynamic variable lookup; fixture needs multiple indices.,,,,
AD0598,,Two-index record lookup equality,"1.2, 1.3",ALL,ASPRST,"On a given record, the value of ASPRSDT is not equal to the value of variable PxxSwSDT where xx equals the value of APERIOD and w equals the value of ASPER",TRUE,Same-record dynamic lookup with two captures.,,,,
AD0599,,Two-index record lookup equality,"1.2, 1.3",ALL,ASPRSTM,"On a given record, the value of ASPRSTM is not equal to the value of variable PxxSwSTM where xx equals the value of APERIOD and w equals the value of ASPER",TRUE,Same-record dynamic lookup with two captures.,,,,
AD0600,,Two-index record lookup equality,"1.2, 1.3",ALL,ASPRSDTM,"On a given record, the value of ASPRSDTM is not equal to the value of variable PxxSwSDM where xx equals the value of APERIOD and w equals the value of ASPER",FALSE,Same-record dynamic lookup with two captures.,,,,
AD0601,,Two-index record lookup equality,"1.2, 1.3",ALL,ASPREDT,"On a given record, the value of ASPREDT is not equal to the value of variable PxxSwEDT where xx equals the value of APERIOD and w equals the value of ASPER",FALSE,Same-record dynamic lookup with two captures.,,,,
AD0602,,Two-index record lookup equality,"1.2, 1.3",ALL,ASPRETM,"On a given record, the value of ASPRETM is not equal to the value of variable PxxSwETM where xx equals the value of APERIOD and w equals the value of ASPER",FALSE,Same-record dynamic lookup with two captures.,,,,
AD0603,,Two-index record lookup equality,"1.2, 1.3",ALL,ASPREDTM,"On a given record, the value of ASPREDTM is not equal to the value of variable PxxSwEDM where xx equals the value of APERIOD and w equals the value of ASPER",FALSE,Same-record dynamic lookup with two captures.,,,,
AD0604,,Any-alternative lookup when selector absent,"1.2, 1.3",ALL,PHSDT,"On a given record, APHASEN is not present and the value of PHSDT is not equal to the value of at least one PHwSDT variable",FALSE,Same-record search across available alternatives.,,,,
AD0605,,Selected-alternative lookup,"1.2, 1.3",ALL,PHSDT,"On a given record, APHASEN is present and the value of PHSDT is not equal to the value of variable PHwSDT where w equals the value of APHASEN",FALSE,Same-record indexed comparison.,,,,
AD0606,,Any-alternative lookup when selector absent,"1.2, 1.3",ALL,PHSTM,"On a given record, APHASEN is not present and the value of PHSTM is not equal to the value of at least one PHwSTM variable",FALSE,Same-record search across available alternatives.,,,,
AD0607,,Selected-alternative lookup,"1.2, 1.3",ALL,PHSTM,"On a given record, APHASEN is present and the value of PHSTM is not equal to the value of variable PHwSTM where w equals the value of APHASEN",FALSE,Same-record indexed comparison.,,,,
AD0608,,Any-alternative lookup when selector absent,"1.2, 1.3",ALL,PHSDTM,"On a given record, APHASEN is not present and the value of PHSDTM is not equal to the value of at least one PHwSDTM variable",FALSE,Same-record search across available alternatives.,,,,
AD0609,,Selected-alternative lookup,"1.2, 1.3",ALL,PHSDTM,"On a given record, APHASEN is present and the value of PHSDTM is not equal to the value of variable PHwSDTM where w equals the value of APHASEN",FALSE,Same-record indexed comparison.,,,,
AD0610,,Any-alternative lookup when selector absent,"1.2, 1.3",ALL,PHEDT,"On a given record, APHASEN is not present and the value of PHEDT is not equal to the value of at least one PHwEDT variable",FALSE,Same-record search across available alternatives.,,,,
AD0611,,Selected-alternative lookup,"1.2, 1.3",ALL,PHEDT,"On a given record, APHASEN is present and the value of PHEDT is not equal to the value of variable PHwEDT where w equals the value of APHASEN",FALSE,Same-record indexed comparison.,,,,
AD0612,,Any-alternative lookup when selector absent,"1.2, 1.3",ALL,PHETM,"On a given record, APHASEN is not present and the value of PHETM is not equal to the value of at least one PHwETM variable",FALSE,Same-record search across available alternatives.,,,,
AD0613,,Selected-alternative lookup,"1.2, 1.3",ALL,PHETM,"On a given record, APHASEN is present and the value of PHETM is not equal to the value of variable PHwETM where w equals the value of APHASEN",FALSE,Same-record indexed comparison.,,,,
AD0614,,Any-alternative lookup when selector absent,"1.2, 1.3",ALL,PHEDTM,"On a given record, APHASEN is not present and the value of PHEDTM is not equal to the value of at least one PHwEDTM variable",FALSE,Same-record search across available alternatives.,,,,
AD0615,,Selected-alternative lookup,"1.2, 1.3",ALL,PHEDTM,"On a given record, APHASEN is present and the value of PHEDTM is not equal to the value of variable PHwEDTM where w equals the value of APHASEN",FALSE,Same-record indexed comparison.,,,,
AD0616,,Conditional bidirectional value mapping,"1.1, 1.2, 1.3",ADSL,"TRCMPGy where y is an integer [1-99, not zero-padded]","There is more than one value of TRCMPGy for a given value of TRCMPGyN, where y is an integer [1-99, not zero-padded], considering only those rows on which both variables are populated",FALSE,Cross-record consistency; generally dataset-local. Requires duplicate-key fixtures with conflicting mapped values.,PR REVIEW,Richard,https://github.com/verisianHQ/core-contributor/pull/765,
AD0617,,Conditional bidirectional value mapping,"1.1, 1.2, 1.3",ADSL,"TRCMPGyN where y is an integer [1-9, not zero-padded]","There is more than one value of TRCMPGyN for a given value of TRCMPGy, where y is an integer [1-99, not zero-padded], considering only those rows on which both variables are populated",FALSE,Cross-record consistency; generally dataset-local. Requires duplicate-key fixtures with conflicting mapped values.,PR REVIEW,Richard,https://github.com/verisianHQ/core-contributor/pull/765,
AD0619,,Character flag values Y/null,"1.0, 1.1",BDS;OCCDS,LVOTFL,LVOTFL is not equal to Y or null,FALSE,Record-value controlled set.,PR REVIEW,Enrico,https://github.com/verisianHQ/core-contributor/pull/796,
AD0620,,Unconditional required metadata variables,"1.0, 1.1, 1.2, 1.3",OCCDS,,AETERM is not present,FALSE,Variable metadata; unconditional within the applicable class/domain.,PR REVIEW,Enrico,https://github.com/verisianHQ/core-contributor/pull/709,
AD0621,,Unconditional required metadata variables,"1.0, 1.1, 1.2, 1.3",OCCDS,,TRTEMFL is not present,FALSE,Variable metadata; unconditional within the applicable class/domain.,PR REVIEW,Enrico,https://github.com/verisianHQ/core-contributor/pull/709,
AD0622,,Forbidden metadata variables,"1.0, 1.1, 1.2, 1.3",OCCDS,AEOCCUR,AEOCCUR is present,FALSE,Unconditional metadata prohibition.,,,,
AD0623,,Unconditional required metadata variables,"1.0, 1.1, 1.2, 1.3",OCCDS,,AESEQ is not present,FALSE,Variable metadata; unconditional within the applicable class/domain.,PR REVIEW,Enrico,https://github.com/verisianHQ/core-contributor/pull/709,
AD0624,,Unconditional required metadata variables,"1.0, 1.1, 1.2, 1.3",OCCDS,,AELLT is not present,FALSE,Variable metadata; unconditional within the applicable class/domain.,PR REVIEW,Enrico,https://github.com/verisianHQ/core-contributor/pull/709,
AD0625,,Unconditional required metadata variables,"1.0, 1.1, 1.2, 1.3",OCCDS,,AEBDSYCD is not present,TRUE,Variable metadata; unconditional within the applicable class/domain.,PR REVIEW,Enrico,https://github.com/verisianHQ/core-contributor/pull/709,
AD0626,,Unconditional required metadata variables,"1.0, 1.1, 1.2, 1.3",OCCDS,,AELLTCD is not present,TRUE,Variable metadata; unconditional within the applicable class/domain.,PR REVIEW,Enrico,https://github.com/verisianHQ/core-contributor/pull/709,
AD0627,,Unconditional required metadata variables,"1.0, 1.1, 1.2, 1.3",OCCDS,,AEHLT is not present,FALSE,Variable metadata; unconditional within the applicable class/domain.,PR REVIEW,Enrico,https://github.com/verisianHQ/core-contributor/pull/709,
AD0628,,Unconditional required metadata variables,"1.0, 1.1, 1.2, 1.3",OCCDS,,AEHLTCD is not present,TRUE,Variable metadata; unconditional within the applicable class/domain.,PR REVIEW,Enrico,https://github.com/verisianHQ/core-contributor/pull/796,
AD0629,,Unconditional required metadata variables,"1.0, 1.1, 1.2, 1.3",OCCDS,,AEHLGT is not present,TRUE,Variable metadata; unconditional within the applicable class/domain.,PR REVIEW,Enrico,https://github.com/verisianHQ/core-contributor/pull/709,
AD0630,,Unconditional required metadata variables,"1.0, 1.1, 1.2, 1.3",OCCDS,,AEHLGTCD is not present,TRUE,Variable metadata; unconditional within the applicable class/domain.,PR REVIEW,Enrico,https://github.com/verisianHQ/core-contributor/pull/709,
AD0631,,Unconditional required metadata variables,"1.0, 1.1, 1.2, 1.3",OCCDS,,AEPTCD is not present,TRUE,Variable metadata; unconditional within the applicable class/domain.,PR REVIEW,Enrico,https://github.com/verisianHQ/core-contributor/pull/709,
AD0632,,Unconditional required metadata variables,"1.0, 1.1, 1.2, 1.3",OCCDS,,AESOC is not present,TRUE,Variable metadata; unconditional within the applicable class/domain.,PR REVIEW,Enrico,https://github.com/verisianHQ/core-contributor/pull/709,
AD0633,,Unconditional required metadata variables,"1.0, 1.1, 1.2, 1.3",OCCDS,,AESOCCD is not present,TRUE,Variable metadata; unconditional within the applicable class/domain.,PR REVIEW,Enrico,https://github.com/verisianHQ/core-contributor/pull/709,
AD0634,,Unconditional required metadata variables,"1.0, 1.1, 1.2, 1.3",OCCDS,,AESTDTC is not present,TRUE,Variable metadata; unconditional within the applicable class/domain.,PR REVIEW,Enrico,https://github.com/verisianHQ/core-contributor/pull/709,
AD0635,,Unconditional required metadata variables,"1.0, 1.1, 1.2, 1.3",OCCDS,,ASTDT is not present,TRUE,Variable metadata; unconditional within the applicable class/domain.,PR REVIEW,Enrico,https://github.com/verisianHQ/core-contributor/pull/709,
AD0636,,Unconditional required metadata variables,"1.0, 1.1, 1.2, 1.3",OCCDS,,AEENDTC is not present,TRUE,Variable metadata; unconditional within the applicable class/domain.,PR REVIEW,Enrico,https://github.com/verisianHQ/core-contributor/pull/709,
AD0637,,Unconditional required metadata variables,"1.0, 1.1, 1.2, 1.3",OCCDS,,AENDT is not present,TRUE,Variable metadata; unconditional within the applicable class/domain.,PR REVIEW,Enrico,https://github.com/verisianHQ/core-contributor/pull/709,
AD0638,,Unconditional required metadata variables,"1.0, 1.1, 1.2, 1.3",OCCDS,,ASTDY is not present,TRUE,Variable metadata; unconditional within the applicable class/domain.,PR REVIEW,Enrico,https://github.com/verisianHQ/core-contributor/pull/709,
AD0639,,Unconditional required metadata variables,"1.0, 1.1, 1.2, 1.3",OCCDS,,AENDY is not present,TRUE,Variable metadata; unconditional within the applicable class/domain.,PR REVIEW,Enrico,https://github.com/verisianHQ/core-contributor/pull/709,
AD0640,,,"1.0, 1.1, 1.2, 1.3",OCCDS,,SUPPAE.QNAM=AETRTEM is present but AETRTEM is not present,TRUE,,PR REVIEW,Richard,https://github.com/verisianHQ/core-contributor/pull/709,
AD0641,,Cross-dataset conditional metadata existence,"1.0, 1.1, 1.2, 1.3",OCCDS,AE.AESTDY,AE.AESTDY is present but AESTDY is not present,TRUE,Cross-dataset metadata dependency.,PR REVIEW,,https://github.com/verisianHQ/core-contributor/pull/709,
AD0642,,Cross-dataset conditional metadata existence,"1.0, 1.1, 1.2, 1.3",OCCDS,AE.AEENDY,AE.AEENDY is present but AEENDY is not present,TRUE,Cross-dataset metadata dependency.,PR REVIEW,,https://github.com/verisianHQ/core-contributor/pull/709,
AD0643,,Cross-dataset conditional metadata existence,"1.0, 1.1, 1.2, 1.3",OCCDS,AE.AEDUR,AE.AEDUR is present but AEDUR is not present,TRUE,Cross-dataset metadata dependency.,PR REVIEW,,https://github.com/verisianHQ/core-contributor/pull/709,
AD0644,,Cross-dataset conditional metadata existence,"1.0, 1.1, 1.2, 1.3",OCCDS,AE.AESEV,AE.AESEV is present but AESEV is not present,TRUE,Cross-dataset metadata dependency.,PR REVIEW,,https://github.com/verisianHQ/core-contributor/pull/709,
AD0645,,Cross-dataset conditional metadata existence,"1.0, 1.1, 1.2, 1.3",OCCDS,AE.AETOXGR,AE.AETOXGR is present but AETOXGR is not present,TRUE,Cross-dataset metadata dependency.,PR REVIEW,,https://github.com/verisianHQ/core-contributor/pull/709,
AD0646,,,"1.0, 1.1, 1.2, 1.3",OCCDS,AE.AEACN,AE.AEACN is present and populated on at least one record but AEACN is not present,TRUE,,PR REVIEW,Richard,https://github.com/verisianHQ/core-contributor/pull/709,
AD0647,,Flag implication,"1.0, 1.1, 1.2, 1.3",OCCDS;MDODDS,TRTEMFL,TREMxxFL is Y but TRTEMFL is not Y,TRUE,Same-record conditional controlled-value implication.,PR REVIEW,,https://github.com/verisianHQ/core-contributor/pull/709,
AD0648,,Flag implication,"1.0, 1.1, 1.2, 1.3",OCCDS;MDODDS,TRTEMFL,TRTEMwFL is Y but TRTEMFL is not Y,TRUE,Same-record conditional controlled-value implication.,PR REVIEW,,https://github.com/verisianHQ/core-contributor/pull/709,
AD0649,,Flag implication,"1.0, 1.1, 1.2, 1.3",OCCDS;MDODDS,ONTRTFL,ONTRxxFL is Y but ONTRTFL is not Y,TRUE,Same-record conditional controlled-value implication.,,,,
AD0650,,Flag implication,"1.0, 1.1, 1.2, 1.3",OCCDS;MDODDS,ONTRTFL,ONTRTwFL is Y but ONTRTFL is not Y,TRUE,Same-record conditional controlled-value implication.,,,,
AD0651,,Conditional metadata companion existence,"1.0, 1.1, 1.2, 1.3",OCCDS;MDODDS,"ONTRxxFL where xx is an integer [01-99, zero-padded]",ONTRxxFL is present but ONTRTFL is not present,TRUE,"""Variable-metadata check; fixtures need column definitions, not populated records.""",PR REVIEW,Enrico,https://github.com/verisianHQ/core-contributor/pull/755,
AD0652,,Conditional metadata companion existence,"1.0, 1.1, 1.2, 1.3",OCCDS;MDODDS,"ONTRTwFL where w is an integer [1-9, not zero-padded]",ONTRTwFL is present but ONTRTFL is not present,TRUE,"""Variable-metadata check; fixtures need column definitions, not populated records.""",PR REVIEW,Enrico,https://github.com/verisianHQ/core-contributor/pull/755,
AD0653,,Forbidden metadata variables,"1.0, 1.1, 1.2, 1.3",OCCDS,SRCDOM,SRCDOM is present,TRUE,Unconditional metadata prohibition.,,,,
AD0654,,Forbidden metadata variables,"1.0, 1.1, 1.2, 1.3",OCCDS,SRCSEQ,SRCSEQ is present,TRUE,Unconditional metadata prohibition.,,,,
AD0655,,Unconditional required metadata variables,"1.0, 1.1, 1.2, 1.3",BDS,,DOSEA is not present,TRUE,Variable metadata; unconditional within the applicable class/domain.,PR REVIEW,Enrico,https://github.com/verisianHQ/core-contributor/pull/709,
AD0656,,Unconditional required metadata variables,"1.0, 1.1, 1.2, 1.3",BDS,,DOSEU is not present,FALSE,Variable metadata; unconditional within the applicable class/domain.,PR REVIEW,Enrico,https://github.com/verisianHQ/core-contributor/pull/709,
AD0657,,Unconditional required metadata variables,"1.0, 1.1, 1.2, 1.3",BDS,,AVISIT is not present,FALSE,Variable metadata; unconditional within the applicable class/domain.,PR REVIEW,Enrico,https://github.com/verisianHQ/core-contributor/pull/709,
AD0658,,Presence-gated numeric 1/null,"1.0, 1.1, 1.2, 1.3",BDS,NCAXFN,NCAXFN is present and has a value that is not 1 or null,FALSE,Metadata-gated record values.,,,,
AD0659,,Presence-gated numeric 1/null,"1.0, 1.1, 1.2, 1.3",BDS,PKSUMXFN,PKSUMXFN is present and has a value that is not 1 or null,FALSE,Metadata-gated record values.,,,,
AD0660,,,"1.0, 1.1, 1.2, 1.3",BDS,METABFL,METABFL is present and has a value that is not Y or null,TRUE,,PR REVIEW,Richard,https://github.com/verisianHQ/core-contributor/pull/755,
AD0661,,,"1.0, 1.1, 1.2, 1.3",BDS,ADOSEDUR,ADOSEDUR is present and NDOSEDUR or DOSEDURU is not present,TRUE,,PR REVIEW,Richard,https://github.com/verisianHQ/core-contributor/pull/755,
AD0662,,At least one of two targets populated,"1.0, 1.1, 1.2, 1.3",BDS,ARRLT; NRRLT,TMPCTDF is populated and ARRLT and NRRLT are not populated,TRUE,Same-record OR requirement.,,,,
AD0663,,Same-record paired population,"1.0, 1.1, 1.2, 1.3",BDS,COHORT,"On a given record, COHORTN is populated and COHORT is not populated",TRUE,Record data; wildcard/index captures often required. Includes reciprocal pairs as separate Rule IDs. **144/144 implemented.**,PR REVIEW,Richard,https://github.com/verisianHQ/core-contributor/pull/762,
AD0664,,Present-but-unpopulated target,"1.0, 1.1, 1.2, 1.3",BDS,COHORTN,"On a given record, COHORT is populated and COHORTN is present and not populated",TRUE,Metadata existence and record population are both material. **2/2 implemented.**,PR REVIEW,Richard,https://github.com/verisianHQ/core-contributor/pull/709,
AD0665,,Conditional metadata companion existence,"1.0, 1.1, 1.2, 1.3",BDS,COHORTN,COHORTN is present and COHORT is not present,TRUE,"""Variable-metadata check; fixtures need column definitions, not populated records.""",PR REVIEW,Enrico,https://github.com/verisianHQ/core-contributor/pull/709,
AD0666,,At least one of two targets populated,"1.0, 1.1, 1.2, 1.3",BDS,DOSEP; DOSEA,DOSPCTDF is populated and DOSEP and DOSEA are not populated,TRUE,Same-record OR requirement.,PR REVIEW,,https://github.com/verisianHQ/core-contributor/pull/709,
AD0667,,Same-record paired population,"1.0, 1.1, 1.2, 1.3",BDS,TRTA,DOSPCTDF is populated and TRTA is not populated,TRUE,Record data; wildcard/index captures often required. Includes reciprocal pairs as separate Rule IDs. **144/144 implemented.**,PR REVIEW,Richard,https://github.com/verisianHQ/core-contributor/pull/762,
AD0668,,Same-record paired population,"1.0, 1.1, 1.2, 1.3",BDS,ACYCLEC,"On a given record, ACYCLE is populated and ACYCLEC is not populated",TRUE,Record data; wildcard/index captures often required. Includes reciprocal pairs as separate Rule IDs. **144/144 implemented.**,PR REVIEW,Richard,https://github.com/verisianHQ/core-contributor/pull/762,
AD0669,,Present-but-unpopulated target,"1.0, 1.1, 1.2, 1.3",BDS,ACYCLE,"On a given record, ACYCLEC is populated and ACYCLE is present and not populated",TRUE,Metadata existence and record population are both material. **2/2 implemented.**,PR REVIEW,Richard,https://github.com/verisianHQ/core-contributor/pull/762,
AD0670,,Conditional metadata companion existence,"1.0, 1.1, 1.2, 1.3",BDS,ACYCLEC,ACYCLEC is present and ACYCLE is not present,TRUE,"""Variable-metadata check; fixtures need column definitions, not populated records.""",PR REVIEW,Enrico,https://github.com/verisianHQ/core-contributor/pull/755,
AD0671,,Unconditional required metadata variables,"1.0, 1.1, 1.2, 1.3",BDS,,AVALU is not present,TRUE,Variable metadata; unconditional within the applicable class/domain.,PR REVIEW,Enrico,https://github.com/verisianHQ/core-contributor/pull/709,
AD0672,,Unconditional required metadata variables,1.3,ADDL,,SPDEVID is not present within ADDL,TRUE,Variable metadata; unconditional within the applicable class/domain.,PR REVIEW,Enrico,https://github.com/verisianHQ/core-contributor/pull/709,
AD0673,,Conditional bidirectional value mapping,1.3,ADDL,"DEVGRy where y is an integer [1-99, not zero-padded]","There is more than one value of DEVGRy for a given value of DEVGRyN, considering only those rows on which both variables are populated",TRUE,Cross-record consistency; generally dataset-local. Requires duplicate-key fixtures with conflicting mapped values.,PR REVIEW,Richard,https://github.com/verisianHQ/core-contributor/pull/765,
AD0674,,Conditional bidirectional value mapping,1.3,ADDL,"DEVGRyN where y is an integer [1-99, not zero-padded]","There is more than one value of DEVGRyN for a given value of DEVGRy, considering only those rows on which both variables are populated",TRUE,Cross-record consistency; generally dataset-local. Requires duplicate-key fixtures with conflicting mapped values.,WORKING ON,Richard,,
AD0675,,Same-record paired population,1.3,ADDL,"DEVGRyN where y is an integer [1-99, not zero-padded]","On a given record, DEVGRy is populated and DEVGRyN is not populated",TRUE,Record data; wildcard/index captures often required. Includes reciprocal pairs as separate Rule IDs. **144/144 implemented.**,PR REVIEW,Richard,https://github.com/verisianHQ/core-contributor/pull/762,
AD0676,,Same-record paired population,1.3,ADDL,"DEVGRy where y is an integer [1-99, not zero-padded]","On a given record, DEVGRyN is populated and DEVGRy is not populated",TRUE,Record data; wildcard/index captures often required. Includes reciprocal pairs as separate Rule IDs. **144/144 implemented.**,PR REVIEW,Richard,https://github.com/verisianHQ/core-contributor/pull/762,
AD0677,,Conditional bidirectional value mapping,1.3,ADDL,"DEVTYGy where y is an integer [1-99, not zero-padded]","There is more than one value of DEVTYGy for a given value of DEVTYGyN, considering only those rows on which both variables are populated",TRUE,Cross-record consistency; generally dataset-local. Requires duplicate-key fixtures with conflicting mapped values.,PR REVIEW,Richard,https://github.com/verisianHQ/core-contributor/pull/765,
AD0678,,Conditional bidirectional value mapping,1.3,ADDL,"DEVTYGyN where y is an integer [1-9, not zero-padded]","There is more than one value of DEVTYGyN for a given value of DEVTYGy, considering only those rows on which both variables are populated",TRUE,Cross-record consistency; generally dataset-local. Requires duplicate-key fixtures with conflicting mapped values.,PR REVIEW,Richard,https://github.com/verisianHQ/core-contributor/pull/765,
AD0679,,Same-record paired population,1.3,ADDL,"DEVTYGyN where y is an integer [1-9, not zero-padded]","On a given record, DEVTYGy is populated and DEVTYGyN is not populated",TRUE,Record data; wildcard/index captures often required. Includes reciprocal pairs as separate Rule IDs. **144/144 implemented.**,WORKING ON,Richard,,
AD0680,,Same-record paired population,1.3,ADDL,"DEVTYGy where y is an integer [1-99, not zero-padded]","On a given record, DEVTYGyN is populated and DEVTYGy is not populated",TRUE,Record data; wildcard/index captures often required. Includes reciprocal pairs as separate Rule IDs. **144/144 implemented.**,PR REVIEW,Richard,https://github.com/verisianHQ/core-contributor/pull/709,
AD0681,,Conditional bidirectional value mapping,1.3,ADDL,"MODELGy where y is an integer [1-99, not zero-padded]","There is more than one value of MODELGy for a given value of MODELGyN, considering only those rows on which both variables are populated",TRUE,Cross-record consistency; generally dataset-local. Requires duplicate-key fixtures with conflicting mapped values.,PR REVIEW,Richard,https://github.com/verisianHQ/core-contributor/pull/709,
AD0682,,Conditional bidirectional value mapping,1.3,ADDL,"MODELGyN where y is an integer [1-9, not zero-padded]","There is more than one value of MODELGyN for a given value of MODELGy, considering only those rows on which both variables are populated",TRUE,Cross-record consistency; generally dataset-local. Requires duplicate-key fixtures with conflicting mapped values.,PR REVIEW,Richard,https://github.com/verisianHQ/core-contributor/pull/765,
AD0683,,Same-record paired population,1.3,ADDL,"MODELGyN where y is an integer [1-9, not zero-padded]","On a given record, MODELGy is populated and MODELGyN is not populated",TRUE,Record data; wildcard/index captures often required. Includes reciprocal pairs as separate Rule IDs. **144/144 implemented.**,PR REVIEW,Richard,https://github.com/verisianHQ/core-contributor/pull/762,
AD0684,,Same-record paired population,1.3,ADDL,"MODELGy where y is an integer [1-99, not zero-padded]","On a given record, MODELGyN is populated and MODELGy is not populated",TRUE,Record data; wildcard/index captures often required. Includes reciprocal pairs as separate Rule IDs. **144/144 implemented.**,PR REVIEW,Richard,https://github.com/verisianHQ/core-contributor/pull/762,
AD0685,,Unconditional required metadata variables,1.3,ADDL,,DEVSDT is not present within ADDL,TRUE,Variable metadata; unconditional within the applicable class/domain.,PR REVIEW,Enrico,https://github.com/verisianHQ/core-contributor/pull/709,
AD0686,,Unconditional required metadata variables,1.3,ADDL,,DEVEDT is not present within ADDL,TRUE,Variable metadata; unconditional within the applicable class/domain.,PR REVIEW,Enrico,https://github.com/verisianHQ/core-contributor/pull/709,
AD0687,,,1.3,ADDL,DEVIPDT,"The value of DEVIPDT is greater than the value of DEVXPDT, considering only rows on which both variables are populated",TRUE,,PR REVIEW,Richard,https://github.com/verisianHQ/core-contributor/pull/798,
AD0688,,,1.3,ADDL,,Within ADDL there is more than one record for unique values of USUBJID and SPDEVID,TRUE,,PR REVIEW,Richard,https://github.com/verisianHQ/core-contributor/pull/798,
AD0689,,Unconditional required metadata variables,1.3,MDODDS;MDBDS,,SPDEVID is not present within dataset,TRUE,Variable metadata; unconditional within the applicable class/domain.,PR REVIEW,Enrico,https://github.com/verisianHQ/core-contributor/pull/709,
AD0691,,Device-subject selected-record existence,1.3,MDBDS,,"Within a given value of PARAMCD for a combination of device and subject, BASE is populated and there is not at least one record with ABLFL equal to Y",TRUE,Cross-record existential device rule.,,,,
AD0692,,Device-subject selected-record existence,1.3,MDBDS,,"Within a given value of PARAMCD for a combination of device and subject, BASEC is populated and there is not at least one record with ABLFL equal to Y",TRUE,Cross-record existential device rule.,,,,
AD0693,,Device-subject conditional mapping,1.3,MDBDS,BASE,"Within a given value of PARAMCD for a combination of device and subject, there is more than one value of BASE for a given value of BASEC, considering only those rows on which both variables are populated",TRUE,Device-qualified cross-record mapping.,,,,
AD0694,,Device-subject conditional mapping,1.3,MDBDS,BASEC,"Within a given value of PARAMCD for a combination of device and subject, there is more than one value of BASEC for a given value of BASE, considering only those rows on which both variables are populated",TRUE,Device-qualified cross-record mapping.,,,,
AD0695,,Device-subject selected-record derivation,1.3,MDBDS,BASE,"BASETYPE is present, BASE is populated, and BASE is not equal to AVAL where ABLFL is equal to Y for a given value of PARAMCD and BASETYPE for a combination of device and subject",TRUE,Cross-record device derivation.,PR REVIEW,,https://github.com/verisianHQ/core-contributor/pull/709,
AD0696,,,1.3,MDBDS,ABLFL,"Within a given PARAMCD and BASETYPE for a combination of device and subject, more than one record has ABLFL equal to Y",TRUE,,PR REVIEW,,https://github.com/verisianHQ/core-contributor/pull/709,
AD0697,,,1.3,MDBDS,ABLFL,"Within a given PARAMCD for a combination of device and subject, more than one record has ABLFL equal to Y and BASETYPE is not present",TRUE,,,,,
AD0698,,Device-subject fallback derivation,1.3,MDBDS,BASE,"BASETYPE is not present, BASE is populated, and BASE is not equal to AVAL where ABLFL is equal to Y for a given value of PARAMCD for a combination of device and subject",TRUE,Cross-record device fallback.,,,,
AD0699,,Device-subject fallback derivation,1.3,MDBDS,BNRIND,"BASETYPE is not present, BNRIND is populated, and BNRIND is not equal to ANRIND where ABLFL is equal to Y for a given value of PARAMCD for a combination of device and subject",TRUE,Cross-record device fallback.,WORKING ON,,,
AD0700,,Device absolute-change equations,1.3,MDBDS,CHG,"Within a given value of PARAMCD for a combination of device and subject, CHG is populated and is not equal to AVAL - BASE",TRUE,Same-record/device-subject arithmetic.,,,,
AD0701,,Device percent-change equations,1.3,MDBDS,PCHG,"Within a given value of PARAMCD for a combination of device and subject, PCHG is populated and is not equal to ((AVAL - BASE)/BASE)*100",FALSE,Same-record/device-subject arithmetic; denominator direction matters.,,,,
AD0702,,Device-subject selected-record derivation,1.3,MDBDS,"ByIND where y is an integer [1-99, not zero-padded]","BASETYPE is present, ByIND is populated, and ByIND is not equal to AyIND where ABLFL is equal to Y for a given value of PARAMCD and BASETYPE for a combination of device and subject",FALSE,Cross-record device derivation.,,,,
AD0703,,,1.3,MDBDS,"ByIND where y is an integer [1-99, not zero-padded]","BASETYPE is not present, ByIND is populated, and ByIND is not equal to AyIND where ABLFL is equal to Y for a given value of PARAMCD for a combination of device and subject",FALSE,,,,,
AD0704,,Device absolute-change equations,1.3,MDBDS,BCHG,"Within a given value of PARAMCD for a combination of device and subject, BCHG is populated and is not equal to BASE-AVAL",FALSE,Same-record/device-subject arithmetic.,,,,
AD0705,,Device percent-change equations,1.3,MDBDS,PBCHG,"Within a given value of PARAMCD for a combination of device and subject, PBCHG is populated and is not equal to ((BASE-AVAL)/AVAL)*100",TRUE,Same-record/device-subject arithmetic; denominator direction matters.,,,,
AD0706,,Indexed period/subperiod metadata,"1.2, 1.3",ALL,ASPER,"For every unique xx value of APERIOD in BDS or OCCDS datasets, there is not a variable PxxSw",TRUE,Record-driven metadata-family completeness.,,,,
AD0707,,Indexed period/subperiod metadata,"1.2, 1.3",ALL,ASPER,"For every unique w value of ASPER in BDS or OCCDS datasets, there is not a variable PxxSw",TRUE,Record-driven metadata-family completeness.,,,,
AD0708,,Standard-variable label equality,1.1,ALL,ALL,"Labels for ADaM variables do not match the standard labels for ADaM variables listed in the implementation guide that cannot be modified (with the exception of (1) variables whose names contain indexes ""w"", “y”, ""xx"", or “zz”; and (2) variable labels with asterisks (*), braces ({...}), and ellipses (...) indicated for sponsor appropriate text)",TRUE,Variable metadata requiring IG reference metadata.,,,,
AD0709,,Standard-variable label equality,"1.2, 1.3",ALL,ALL,"Labels for ADaM variables do not match the standard labels for ADaM variables listed in the implementation guide that cannot be modified (with the exception of (1) variables whose names contain indexes ""w"", “y”, or “zz”; and (2) variable labels with asterisks (*), braces ({...}), and ellipses (...) indicated for sponsor appropriate text)",TRUE,Variable metadata requiring IG reference metadata.,,,,
AD0710,,Suffix character flag Y/N/null,"1.2, 1.3",BDS;MDBDS,*RFL,"A variable with a suffix of RFL has a value that is not Y, N, or null",FALSE,Metadata-gated record controlled set.,PR REVIEW,Maximo,https://github.com/verisianHQ/core-contributor/pull/752,
AD0711,,Suffix character flag Y/N/null,"1.2, 1.3",BDS;MDBDS,*PFL,"A variable with a suffix of PFL has a value that is not Y, N, or null",FALSE,Metadata-gated record controlled set.,PR REVIEW,Maximo,https://github.com/verisianHQ/core-contributor/pull/752,
AD0712,,Suffix numeric flag 1/0/null,"1.2, 1.3",BDS;MDBDS,*RFN,"A variable with a suffix of RFN has a value that is not 1, 0 or null",FALSE,Metadata-gated record controlled set.,PR REVIEW,Maximo,https://github.com/verisianHQ/core-contributor/pull/752,
AD0713,,Suffix numeric flag 1/0/null,"1.2, 1.3",BDS;MDBDS,*PFN,"A variable with a suffix of PFN has a value that is not 1, 0, or null",FALSE,Metadata-gated record controlled set.,PR REVIEW,Maximo,https://github.com/verisianHQ/core-contributor/pull/752,
AD0714,,Conditional reciprocal suffix mapping,"1.1, 1.2, 1.3",ALL,,"There is more than one value of a variable which has a suffix of GRyN for a given value of a variable with the same root name and suffix of GRy, considering only those rows on which both variables are populated",FALSE,Cross-record reciprocal mapping with a population filter.,,,,
AD0715,,Conditional reciprocal suffix mapping,"1.1, 1.2, 1.3",ALL,,"There is more than one value of a variable which has a suffix of GRy for a given value of a variable with the same root name and suffix of GRyN, considering only those rows on which both variables are populated",FALSE,Cross-record reciprocal mapping with a population filter.,,,,
AD0716,,,"1.1, 1.2, 1.3",ALL,*TM,A variable with a suffix of TM is not a numeric variable excluding SDTM variables with a suffix of ELTM,FALSE,,PR REVIEW,Richard,https://github.com/verisianHQ/core-contributor/pull/798,
AD0717,,Conditional bidirectional value mapping,"1.1, 1.2, 1.3",ADSL,"TRTxxPN where xx is an integer [01-99, zero-padded]","There is more than one value of TRTxxPN for a given value of TRTxxP, considering only those rows on which both variables are populated",FALSE,Cross-record consistency; generally dataset-local. Requires duplicate-key fixtures with conflicting mapped values.,PR REVIEW,Richard,https://github.com/verisianHQ/core-contributor/pull/765,
AD0718,,Conditional bidirectional value mapping,"1.1, 1.2, 1.3",ADSL,"TRTxxP where xx is an integer [01-99, zero-padded]","There is more than one value of TRTxxP for a given value of TRTxxPN, considering only those rows on which both variables are populated",FALSE,Cross-record consistency; generally dataset-local. Requires duplicate-key fixtures with conflicting mapped values.,PR REVIEW,Richard,https://github.com/verisianHQ/core-contributor/pull/765,
AD0719,,,"1.1, 1.2, 1.3",ALL,,None of the subject-level or record-level treatment variables defined in the IG is present,FALSE,,PR REVIEW,Richard,https://github.com/verisianHQ/core-contributor/pull/798,
AD0720,,,"1.1, 1.2, 1.3",ALL,TRTP,A non-missing value of TRTP is not equal to at least one value of the character planned treatment variables in ADSL defined in the IG,TRUE,,PR REVIEW,Richard,https://github.com/verisianHQ/core-contributor/pull/798,
AD0721,,Conditional bidirectional value mapping,"1.1, 1.2, 1.3",BDS;MDBDS,TRTPN,"There is more than one value of TRTPN for a given value of TRTP, considering only those rows on which both variables are populated",TRUE,Cross-record consistency; generally dataset-local. Requires duplicate-key fixtures with conflicting mapped values.,PR REVIEW,Richard,https://github.com/verisianHQ/core-contributor/pull/765,
AD0722,,Conditional bidirectional value mapping,"1.1, 1.2, 1.3",BDS;MDBDS,TRTP,"There is more than one value of TRTP for a given value of TRTPN, considering only those rows on which both variables are populated",TRUE,Cross-record consistency; generally dataset-local. Requires duplicate-key fixtures with conflicting mapped values.,PR REVIEW,Richard,https://github.com/verisianHQ/core-contributor/pull/765,
AD0723,,Conditional bidirectional value mapping,"1.1, 1.2, 1.3",BDS;MDBDS,TRTAN,"There is more than one value of TRTAN for a given value of TRTA, considering only those rows on which both variables are populated",TRUE,Cross-record consistency; generally dataset-local. Requires duplicate-key fixtures with conflicting mapped values.,PR REVIEW,Richard,https://github.com/verisianHQ/core-contributor/pull/765,
AD0724,,Conditional bidirectional value mapping,"1.1, 1.2, 1.3",BDS;MDBDS,TRTA,"There is more than one value of TRTA for a given value of TRTAN, considering only those rows on which both variables are populated",FALSE,Cross-record consistency; generally dataset-local. Requires duplicate-key fixtures with conflicting mapped values.,PR REVIEW,Richard,https://github.com/verisianHQ/core-contributor/pull/765,
AD0725,,Conditional bidirectional value mapping,"1.1, 1.2, 1.3",ALL,APERIODC,"There is more than one value of APERIODC for a given value of APERIOD, considering only those rows on which both variables are populated",FALSE,Cross-record consistency; generally dataset-local. Requires duplicate-key fixtures with conflicting mapped values.,PR REVIEW,Richard,https://github.com/verisianHQ/core-contributor/pull/765,
AD0726,,Conditional bidirectional value mapping,"1.1, 1.2, 1.3",ALL,APERIOD,"There is more than one value of APERIOD for a given value of APERIODC, considering only those rows on which both variables are populated",FALSE,Cross-record consistency; generally dataset-local. Requires duplicate-key fixtures with conflicting mapped values.,PR REVIEW,Richard,https://github.com/verisianHQ/core-contributor/pull/765,
AD0727,,Conditional group-qualified mapping,"1.1, 1.2, 1.3",BDS;MDBDS,AVISITN,"Within a given value of PARAMCD, there is more than one value of AVISITN for a given value of AVISIT, considering only those rows on which both variables are populated",TRUE,Cross-record and group-partitioned.,PR REVIEW,Enrico,https://github.com/verisianHQ/core-contributor/pull/794,
AD0728,,Conditional group-qualified mapping,"1.1, 1.2, 1.3",BDS;MDBDS,AVISIT,"Within a given value of PARAMCD, there is more than one value of AVISIT for a given value of AVISITN, considering only those rows on which both variables are populated",TRUE,Cross-record and group-partitioned.,PR REVIEW,Enrico,https://github.com/verisianHQ/core-contributor/pull/794,
AD0729,,Conditional group-qualified mapping,1.1,BDS,ATPTN,"Within a given value of PARAMCD, there is more than one value of ATPTN for a given value of ATPT, considering only those rows on which both variables are populated",FALSE,Cross-record and group-partitioned.,PR REVIEW,Enrico,https://github.com/verisianHQ/core-contributor/pull/794,
AD0730,,Conditional bidirectional value mapping,"1.1, 1.2, 1.3",BDS;MDBDS,"PARCATy where y is an integer [1-99, not zero-padded]","There is more than one value of PARCATy for a given value of PARCATyN, considering only those rows on which both variables are populated",FALSE,Cross-record consistency; generally dataset-local. Requires duplicate-key fixtures with conflicting mapped values.,PR REVIEW,Richard,https://github.com/verisianHQ/core-contributor/pull/765,
AD0731,,Conditional bidirectional value mapping,"1.1, 1.2, 1.3",BDS;MDBDS,"PARCATyN where y is an integer [1-9, not zero-padded]","There is more than one value of PARCATyN for a given value of PARCATy, considering only those rows on which both variables are populated",TRUE,Cross-record consistency; generally dataset-local. Requires duplicate-key fixtures with conflicting mapped values.,PR REVIEW,Richard,https://github.com/verisianHQ/core-contributor/pull/765,
AD0732,,Subject-stratified conditional mapping,"1.1, 1.2, 1.3",BDS,BASE,"Within a given value of PARAMCD for a subject, there is more than one value of BASE for a given value of BASEC, considering only those rows on which both variables are populated",TRUE,Cross-record subject-plus-group partition.,,,,
AD0733,,Subject-stratified conditional mapping,"1.1, 1.2, 1.3",BDS,BASEC,"Within a given value of PARAMCD for a subject, there is more than one value of BASEC for a given value of BASE, considering only those rows on which both variables are populated",TRUE,Cross-record subject-plus-group partition.,,,,
AD0734,,,1.1,BDS,BASETYPE,"Within a dataset, BASETYPE is populated for at least one record and is not populated for at least one record",TRUE,,PR REVIEW,Richard,https://github.com/verisianHQ/core-contributor/pull/798,
AD0735,,,1.3,BDS;MDBDS,BASETYPE,"Within a given value of PARAMCD where either BASE or BASEC are populated, BASETYPE is populated for at least one record and is not populated for at least one record",TRUE,,,,,
AD0736,,Conditional group-qualified mapping,"1.1, 1.2, 1.3",BDS;MDBDS,"SHIFTy where y is an integer [1-99, not zero-padded]","Within a given value of PARAMCD, there is more than one value of SHIFTy for a given value of SHIFTyN, considering only those rows on which both variables are populated",TRUE,Cross-record and group-partitioned.,PR REVIEW,Enrico,https://github.com/verisianHQ/core-contributor/pull/794,
AD0737,,Conditional group-qualified mapping,"1.1, 1.2, 1.3",BDS;MDBDS,"SHIFTyN where y is an integer [1-99, not zero-padded]","Within a given value of PARAMCD, there is more than one value of SHIFTyN for a given value of SHIFTy, considering only those rows on which both variables are populated",TRUE,Cross-record and group-partitioned.,PR REVIEW,Enrico,https://github.com/verisianHQ/core-contributor/pull/794,
AD0738,,Conditional bidirectional value mapping,"1.1, 1.2, 1.3",BDS;MDBDS,PARAM,"There is more than one value of PARAM for a given value of PARAMCD, considering only those rows on which both variables are populated",TRUE,Cross-record consistency; generally dataset-local. Requires duplicate-key fixtures with conflicting mapped values.,PR REVIEW,Richard,https://github.com/verisianHQ/core-contributor/pull/794,
AD0739,,Conditional bidirectional value mapping,"1.1, 1.2, 1.3",BDS;MDBDS,PARAMCD,"There is more than one value of PARAMCD for a given value of PARAM, considering only those rows on which both variables are populated",TRUE,Cross-record consistency; generally dataset-local. Requires duplicate-key fixtures with conflicting mapped values.,PR REVIEW,Richard,https://github.com/verisianHQ/core-contributor/pull/794,
AD0740,,Dataset-wide conditional mapping consistency,"1.1, 1.2, 1.3",BDS;MDBDS,PARAM,"Within a dataset, there is more than one value of PARAM for a given value of PARAMN, considering only those rows on which both variables are populated",TRUE,Dataset-wide cross-record check; dataset identity is part of the grouping scope.,PR REVIEW,Richard,https://github.com/verisianHQ/core-contributor/pull/771,
AD0741,,Dataset-wide conditional mapping consistency,"1.1, 1.2, 1.3",BDS;MDBDS,PARAMN,"Within a dataset, there is more than one value of PARAMN for a given value of PARAM, considering only those rows on which both variables are populated",TRUE,Dataset-wide cross-record check; dataset identity is part of the grouping scope.,PR REVIEW,Richard,https://github.com/verisianHQ/core-contributor/pull/771,
AD0742,,Conditional group-qualified mapping,"1.1, 1.2, 1.3",BDS;MDBDS,AVALC,"Within a given value of PARAMCD, there is more than one value of AVALC for a given value of AVAL, considering only those rows on which both variables are populated",FALSE,Cross-record and group-partitioned.,PR REVIEW,Enrico,https://github.com/verisianHQ/core-contributor/pull/794,
AD0743,,Conditional group-qualified mapping,"1.1, 1.2, 1.3",BDS;MDBDS,AVAL,"Within a given value of PARAMCD, there is more than one value of AVAL for a given value of AVALC, considering only those rows on which both variables are populated",FALSE,Cross-record and group-partitioned.,PR REVIEW,Enrico,https://github.com/verisianHQ/core-contributor/pull/794,
AD0744,,Conditional selected-record derivation,1.3,BDS,BTOXGR,"BASETYPE is populated, BTOXGR is populated, and BTOXGR is not equal to ATOXGR where ABLFL is equal to Y for a given value of PARAMCD and BASETYPE for a subject",FALSE,Cross-record derivation.,,,,
AD0745,,Conditional selected-record derivation,1.3,BDS,BNRIND,"BASETYPE is populated, BNRIND is populated, and BNRIND is not equal to ANRIND where ABLFL is equal to Y for a given value of PARAMCD and BASETYPE for a subject",FALSE,Cross-record derivation.,,,,
AD0746,,,"1.1, 1.2, 1.3",BDS;OCCDS;MDBDS;MDODDS,SRCDOM,"SRCDOM has a value that is not an SDTM domain name, ADaM dataset name, or null",TRUE,,PR REVIEW,Richard,https://github.com/verisianHQ/core-contributor/pull/794,
AD0747,,Condition-scoped mapping,1.1,BDS,"AVALCATy where y is an integer [1-9, not zero-padded]","Within a given value of PARAMCD, there is more than one value of AVALCATy for a given value of AVAL, where y is a single-digit integer [1-9]",TRUE,Cross-record; fixtures require separate condition strata.,PR REVIEW,Maximo,https://github.com/verisianHQ/core-contributor/pull/794,
AD0748,,Condition-scoped mapping,"1.2, 1.3",BDS;MDBDS,"AVALCATy where y is an integer [1-9, not zero-padded]","Within a given value of PARAMCD, there is more than one value of AVALCATy for a given value of AVAL and y, where y is a single-digit integer [1-9]",TRUE,Cross-record; fixtures require separate condition strata.,PR REVIEW,Maximo,https://github.com/verisianHQ/core-contributor/pull/787,
AD0749,,Condition-scoped mapping,"1.1, 1.2, 1.3",BDS;MDBDS,"BASECATy where y is an integer [1-9, not zero-padded]","Within a given value of PARAMCD, there is more than one value of BASECATy for a given value of BASE and y, where y is a single-digit integer [1-9]",TRUE,Cross-record; fixtures require separate condition strata.,PR REVIEW,Maximo,https://github.com/verisianHQ/core-contributor/pull/787,
AD0750,,Condition-scoped mapping,"1.1, 1.2, 1.3",BDS;MDBDS,"CHGCATy where y is an integer [1-99, not zero-padded]","Within a given value of PARAMCD, there is more than one value of CHGCATy for a given value of CHG and y, where y is an integer [1-99, not zero-padded]",TRUE,Cross-record; fixtures require separate condition strata.,PR REVIEW,Maximo,https://github.com/verisianHQ/core-contributor/pull/787,
AD0751,,Condition-scoped mapping,"1.1, 1.2, 1.3",BDS;MDBDS,"PCHGCATy where y is an integer [1-9, not zero-padded]","Within a given value of PARAMCD, there is more than one value of PCHGCATy for a given value of PCHG and y, where y is a single-digit integer [1-9]",TRUE,Cross-record; fixtures require separate condition strata.,PR REVIEW,Maximo,https://github.com/verisianHQ/core-contributor/pull/787,
AD0752,,Conditional bidirectional value mapping,"1.1, 1.2, 1.3",ADSL,TRTSEQP,"There is more than one value of TRTSEQP for a given value of TRTSEQPN, considering only those rows on which both variables are populated",TRUE,Cross-record consistency; generally dataset-local. Requires duplicate-key fixtures with conflicting mapped values.,PR REVIEW,Richard,https://github.com/verisianHQ/core-contributor/pull/794,
