STUDYID,USUBJID,PARAMCD,AVAL,PROJIDN,PROJID,STUDYIDN,SUBJTYPC,SUBJTYP,USUBJIDN,SUBJIDN,SUBJID,SITEIDN,SITEID,FLGREASC,FLGREAS,DVIDN,DVID,BLQFN,BLQFL,ALQFN,ALQFL,FORMN,FORM,ROUTEN,ROUTE,ACYCLEC,ACYCLE,COHORTC,COHORT,RACEN,RACE,SEXN,SEX,COUNTRYN,COUNTRY,COUNTRYL
Study Identifier,Unique Subject Identifier,Parameter Code,Analysis Value,PROJIDN Numeric Value,PROJID Character Value,STUDYIDN Numeric Value,SUBJTYPC Character Value,SUBJTYP Character Value,USUBJIDN Numeric Value,SUBJIDN Numeric Value,SUBJID Character Value,SITEIDN Numeric Value,SITEID Character Value,FLGREASC Character Value,FLGREAS Character Value,DVIDN Numeric Value,DVID Character Value,BLQFN Numeric Value,BLQFL Character Value,ALQFN Numeric Value,ALQFL Character Value,FORMN Numeric Value,FORM Character Value,ROUTEN Numeric Value,ROUTE Character Value,ACYCLEC Character Value,ACYCLE Numeric Value,COHORTC Character Value,COHORT Character Value,RACEN Numeric Value,RACE Character Value,SEXN Numeric Value,SEX Character Value,COUNTRYN Numeric Value,COUNTRY Character Value,COUNTRYL Character Value
Char,Char,Char,Num,Num,Char,Num,Char,Char,Num,Num,Char,Num,Char,Char,Char,Num,Char,Num,Char,Num,Char,Num,Char,Num,Char,Char,Num,Char,Char,Num,Char,Num,Char,Num,Char,Char
40,40,40,8,8,40,8,40,40,8,8,40,8,40,40,40,8,40,8,40,8,40,8,40,8,40,40,8,40,40,8,40,8,40,8,40,40
STUDY001,STUDY001-001,TEST,1,1,PROJID Value,1,SUBJTYPC Value,SUBJTYP Value,1,1,SUBJID Value,1,SITEID Value,FLGREASC Value,FLGREAS Value,1,DVID Value,1,BLQFL Value,1,ALQFL Value,1,FORM Value,1,ROUTE Value,ACYCLEC Value,1,COHORTC Value,COHORT Value,1,RACE Value,1,SEX Value,1,COUNTRY Value,COUNTRYL Value
STUDY001,STUDY001-002,TEST,2,,,2,,,2,,,,,,,,,,,,,,,,,,,,,,,,,,,
