STUDYID,USUBJID,TRTSEQP,TRTSEQPN,TRTSEQA,TRTSEQAN,TR01PG1,TR01PG1N,TR99PG9,TR99PG9N,TR01AG1,TR01AG1N,TR99AG9,TR99AG9N,TRT01A,TRT01AN,TRT99A,TRT99AN,DTHCAUS,DTHCAUSN,REGION1,REGION1N,REGION9,REGION9N,TRCMPG1,TRCMPG1N,TRCMPG9,TRCMPG9N,STRATAR,STRATARN,TRT01PN,TRT01P,TRT99PN,TRT99P,STRAT1RN,STRAT1R,STRAT9RN,STRAT9R,STRATAVN,STRATAV,STRAT1VN,STRAT1V,STRAT9VN,STRAT9V
Study Identifier,Unique Subject Identifier,TRTSEQP Character Value,TRTSEQP Numeric Value,TRTSEQA Character Value,TRTSEQA Numeric Value,TR01PG1 Character Value,TR01PG1 Numeric Value,TR99PG9 Character Value,TR99PG9 Numeric Value,TR01AG1 Character Value,TR01AG1 Numeric Value,TR99AG9 Character Value,TR99AG9 Numeric Value,TRT01A Character Value,TRT01A Numeric Value,TRT99A Character Value,TRT99A Numeric Value,DTHCAUS Character Value,DTHCAUS Numeric Value,REGION1 Character Value,REGION1 Numeric Value,REGION9 Character Value,REGION9 Numeric Value,TRCMPG1 Character Value,TRCMPG1 Numeric Value,TRCMPG9 Character Value,TRCMPG9 Numeric Value,STRATAR Character Value,STRATAR Numeric Value,TRT01PN Numeric Value,TRT01P Character Value,TRT99PN Numeric Value,TRT99P Character Value,STRAT1RN Numeric Value,STRAT1R Character Value,STRAT9RN Numeric Value,STRAT9R Character Value,STRATAVN Numeric Value,STRATAV Character Value,STRAT1VN Numeric Value,STRAT1V Character Value,STRAT9VN Numeric Value,STRAT9V Character Value
Char,Char,Char,Num,Char,Num,Char,Num,Char,Num,Char,Num,Char,Num,Char,Num,Char,Num,Char,Num,Char,Num,Char,Num,Char,Num,Char,Num,Char,Num,Num,Char,Num,Char,Num,Char,Num,Char,Num,Char,Num,Char,Num,Char
40,40,40,8,40,8,40,8,40,8,40,8,40,8,40,8,40,8,40,8,40,8,40,8,40,8,40,8,40,8,8,40,8,40,8,40,8,40,8,40,8,40,8,40
STUDY001,STUDY001-001,TRTSEQP Value,1,TRTSEQA Value,1,TR01PG1 Value,1,TR99PG9 Value,1,TR01AG1 Value,1,TR99AG9 Value,1,TRT01A Value,1,TRT99A Value,1,DTHCAUS Value,1,REGION1 Value,1,REGION9 Value,1,TRCMPG1 Value,1,TRCMPG9 Value,1,STRATAR Value,1,1,TRT01P Value,1,TRT99P Value,1,STRAT1R Value,1,STRAT9R Value,1,STRATAV Value,1,STRAT1V Value,1,STRAT9V Value
STUDY001,STUDY001-002,,,,,,,,,,,,,,,,,,,,,,,,,,,,,,,,,,,,,,,,,,
