STUDYID,USUBJID,PARAMCD,AVAL,TRTPG1,TRTPG1N,TRTPG99,TRTPG99N,TRTAG1,TRTAG1N,TRTAG99,TRTAG99N,APERIODC,APERIOD,APHASE,APHASEN,ASPERC,ASPER,ATPT,ATPTN,AVALCAT1,AVALCA1N,AVALCAT9,AVALCA9N,BASECAT1,BASECA1N,BASECAT9,BASECA9N,CHGCAT1,CHGCAT1N,CHGCAT9,CHGCAT9N,PCHGCAT1,PCHGCA1N,PCHGCAT9,PCHGCA9N,PARCAT1,PARCAT1N,PARCAT9,PARCAT9N,AVISIT,AVISITN,MCRIT1ML,MCRIT1MN,MCRIT9ML,MCRIT9MN,SHIFT1,SHIFT1N,SHIFT99,SHIFT99N,TRTA,TRTAN,TRTP,TRTPN,TSEQPG1,TSEQPG1N,TSEQPG9,TSEQPG9N,TSEQAG1,TSEQAG1N,TSEQAG9,TSEQAG9N,TESTFL,TESTFN,SAFEFL,SAFEFN,ARELTMU,ARELTM,CRIT1,CRIT1FL,CRIT99,CRIT99FL,AWTARGET,AWTDIFF,MCRIT1,MCRIT9,AGEGR1,AGEGR1N,SITEGR9,SITEGR9N,BTOXGR,BTOXGRN,BTOXGRLN,BTOXGRL,BTOXGRHN,BTOXGRH,ATOXGRN,ATOXGR,ATOXGRLN,ATOXGRL,ATOXGRHN,ATOXGRH,ABLFL,ABLFN,ANL01FL,ANL01FN,ANL99FL,ANL99FN,BCHGCA1N,BCHGCAT1,BCHGCA9N,BCHGCAT9,PBCHGC1N,PBCHGCA1,PBCHGC9N,PBCHGCA9,CRIT1FN,CRIT99FN,ONTRTFN,ONTRTFL,LVOTFN,LVOTFL
Study Identifier,Unique Subject Identifier,Parameter Code,Analysis Value,TRTPG1 Character Value,TRTPG1 Numeric Value,TRTPG99 Character Value,TRTPG99 Numeric Value,TRTAG1 Character Value,TRTAG1 Numeric Value,TRTAG99 Character Value,TRTAG99 Numeric Value,APERIODC Character Value,APERIOD Character Value,APHASE Character Value,APHASE Numeric Value,ASPERC Character Value,ASPER Character Value,ATPT Character Value,ATPT Numeric Value,AVALCAT1 Character Value,AVALCA1 Numeric Value,AVALCAT9 Character Value,AVALCA9 Numeric Value,BASECAT1 Character Value,BASECA1 Numeric Value,BASECAT9 Character Value,BASECA9 Numeric Value,CHGCAT1 Character Value,CHGCAT1 Numeric Value,CHGCAT9 Character Value,CHGCAT9 Numeric Value,PCHGCAT1 Character Value,PCHGCA1 Numeric Value,PCHGCAT9 Character Value,PCHGCA9 Numeric Value,PARCAT1 Character Value,PARCAT1 Numeric Value,PARCAT9 Character Value,PARCAT9 Numeric Value,AVISIT Character Value,AVISIT Numeric Value,MCRIT1ML Character Value,MCRIT1M Numeric Value,MCRIT9ML Character Value,MCRIT9M Numeric Value,SHIFT1 Character Value,SHIFT1 Numeric Value,SHIFT99 Character Value,SHIFT99 Numeric Value,TRTA Character Value,TRTA Numeric Value,TRTP Character Value,TRTP Numeric Value,TSEQPG1 Character Value,TSEQPG1 Numeric Value,TSEQPG9 Character Value,TSEQPG9 Numeric Value,TSEQAG1 Character Value,TSEQAG1 Numeric Value,TSEQAG9 Character Value,TSEQAG9 Numeric Value,TESTFL Character Value,TESTFN Numeric Value,SAFEFL Character Value,SAFEFN Numeric Value,ARELTMU Character Value,ARELTM Numeric Value,CRIT1 Character Value,CRIT1FL Character Value,CRIT99 Character Value,CRIT99FL Character Value,AWTARGET Numeric Value,AWTDIFF Numeric Value,MCRIT1 Character Value,MCRIT9 Character Value,AGEGR1 Character Value,AGEGR1N Numeric Value,SITEGR9 Character Value,SITEGR9N Numeric Value,BTOXGR Character Value,BTOXGRN Numeric Value,BTOXGRLN Numeric Value,BTOXGRL Character Value,BTOXGRHN Numeric Value,BTOXGRH Character Value,ATOXGRN Numeric Value,ATOXGR Character Value,ATOXGRLN Numeric Value,ATOXGRL Character Value,ATOXGRHN Numeric Value,ATOXGRH Character Value,ABLFL Character Value,ABLFN Numeric Value,ANL01FL Character Value,ANL01FN Numeric Value,ANL99FL Character Value,ANL99FN Numeric Value,BCHGCA1N Numeric Value,BCHGCAT1 Character Value,BCHGCA9N Numeric Value,BCHGCAT9 Character Value,PBCHGC1N Numeric Value,PBCHGCA1 Character Value,PBCHGC9N Numeric Value,PBCHGCA9 Character Value,CRIT1FN Numeric Value,CRIT99FN Numeric Value,ONTRTFN Numeric Value,ONTRTFL Character Value,LVOTFN Numeric Value,LVOTFL Character Value
Char,Char,Char,Num,Char,Num,Char,Num,Char,Num,Char,Num,Char,Num,Char,Num,Char,Num,Char,Num,Char,Num,Char,Num,Char,Num,Char,Num,Char,Num,Char,Num,Char,Num,Char,Num,Char,Num,Char,Num,Char,Num,Char,Num,Char,Num,Char,Num,Char,Num,Char,Num,Char,Num,Char,Num,Char,Num,Char,Num,Char,Num,Char,Num,Char,Num,Char,Num,Char,Char,Char,Char,Num,Num,Char,Char,Char,Num,Char,Num,Char,Num,Num,Char,Num,Char,Num,Char,Num,Char,Num,Char,Char,Num,Char,Num,Char,Num,Num,Char,Num,Char,Num,Char,Num,Char,Num,Num,Num,Char,Num,Char
40,40,40,8,40,8,40,8,40,8,40,8,40,8,40,8,40,8,40,8,40,8,40,8,40,8,40,8,40,8,40,8,40,8,40,8,40,8,40,8,40,8,40,8,40,8,40,8,40,8,40,8,40,8,40,8,40,8,40,8,40,8,40,8,40,8,40,8,40,40,40,40,8,8,40,40,40,8,40,8,40,8,8,40,8,40,8,40,8,40,8,40,40,8,40,8,40,8,8,40,8,40,8,40,8,40,8,8,8,40,8,40
STUDY001,STUDY001-001,TEST,1,TRTPG1 Value,1,TRTPG99 Value,1,TRTAG1 Value,1,TRTAG99 Value,1,APERIODC Value,1,APHASE Value,1,ASPERC Value,1,ATPT Value,1,AVALCAT1 Value,1,AVALCAT9 Value,1,BASECAT1 Value,1,BASECAT9 Value,1,CHGCAT1 Value,1,CHGCAT9 Value,1,PCHGCAT1 Value,1,PCHGCAT9 Value,1,PARCAT1 Value,1,PARCAT9 Value,1,AVISIT Value,1,MCRIT1ML Value,1,MCRIT9ML Value,1,SHIFT1 Value,1,SHIFT99 Value,1,TRTA Value,1,TRTP Value,1,TSEQPG1 Value,1,TSEQPG9 Value,1,TSEQAG1 Value,1,TSEQAG9 Value,1,TESTFL Value,1,SAFEFL Value,1,ARELTMU Value,1,CRIT1 Value,CRIT1FL Value,CRIT99 Value,CRIT99FL Value,1,1,MCRIT1 Value,MCRIT9 Value,AGEGR1 Value,1,SITEGR9 Value,1,BTOXGR Value,1,1,BTOXGRL Value,1,BTOXGRH Value,1,ATOXGR Value,1,ATOXGRL Value,1,ATOXGRH Value,ABLFL Value,1,ANL01FL Value,1,ANL99FL Value,1,1,BCHGCAT1 Value,1,BCHGCAT9 Value,1,PBCHGCA1 Value,1,PBCHGCA9 Value,1,1,1,ONTRTFL Value,1,LVOTFL Value
STUDY001,STUDY001-002,TEST,2,,,,,,,,,,,,,,,,,,,,,,,,,,,,,,,,,,,,,,,,,,,,,,,,,,,,,,,,,,,,,,,,,,,,,,,,,,,,,,,,,,,,,,,,,,,,,,,,,,,,,,,,,,,,
