# Variable: DTHFL
# Condition: SS.SSSTRESC = 'DEAD'
# Rule: DTHFL = 'Y'
# verified
Authorities:
  - Organization: CDISC
    Standards:
      - Name: SDTMIG
        References:
          - Citations:
              - Cited Guidance: For example, if a subject's Survival Status is "DEAD", the date
                  of death must be stored in DM and within a final disposition
                  record in DS.
                Document: IG v3.2
                Item: Assumption 2
                Section: '6.3'
            Origin: SDTM and SDTMIG Conformance Rules
            Rule Identifier:
              Id: CG0132
              Version: '1'
            Version: '2.0'
        Version: '3.2'
      - Name: SDTMIG
        References:
          - Citations:
              - Cited Guidance: For example, if a subject's Survival Status is "DEAD", the date
                  of death must be stored in DM and within a final disposition
                  record in DS.
                Document: IG v3.3
                Item: Assumption 1
                Section: 6.3.15
            Origin: SDTM and SDTMIG Conformance Rules
            Rule Identifier:
              Id: CG0132
              Version: '1'
            Version: '2.0'
        Version: '3.3'
      - Name: SDTMIG
        References:
          - Citations:
              - Cited Guidance: 4. If the subject's survival status is "dead", the
                  Demographics (DM) variables DTHDTC and DTHFL must be
                  appropriately populated.
                Document: IG v3.4
                Item: Accounting for Long-Term Follow-up
                Section: 4.5.8
              - Cited Guidance: For example, if a subject's
                  survival status is "DEAD", the date of death must be stored in
                  DM and within a final disposition record in DS.
                Document: IG v3.4
                Item: Assumption 1
                Section: 6.3.11
            Origin: SDTM and SDTMIG Conformance Rules
            Rule Identifier:
              Id: CG0132
              Version: '1'
            Version: '2.0'
        Version: '3.4'
  #CG0132 is identical to rule FB0601. Added metadata for FB0601.
  - Organization: FDA
    Standards:
      - Name: SDTMIG
        References:
          - Citations:
              - Cited Guidance: All death information should be populated for subjects that died
                  during the study including any post treatment follow-up.
                Document: FDA
                Section: FDAB006
            Origin: FDA Business Rules
            Rule Identifier:
              Id: FB0601
              Version: '1'
            Version: '1.5'
        Version: '3.2'
      - Name: SDTMIG
        References:
          - Citations:
              - Cited Guidance: All death information should be populated for subjects that died
                  during the study including any post treatment follow-up.
                Document: FDA
                Section: FDAB006
            Origin: FDA Business Rules
            Rule Identifier:
              Id: FB0601
              Version: '1'
            Version: '1.5'
        Version: '3.3'
      - Name: SDTMIG
        References:
          - Citations:
              - Cited Guidance: All death information should be populated for subjects that died
                  during the study including any post treatment follow-up.
                Document: FDA
                Section: FDAB006
            Origin: FDA Business Rules
            Rule Identifier:
              Id: FB0601
              Version: '1'
            Version: '1.5'
        Version: '3.4'
Check:
  all:
    - name: SSSTRESC
      operator: equal_to
      value: DEAD
      value_is_literal: true
    - name: DTHFL
      operator: not_equal_to
      value: Y
      value_is_literal: true
Core:
  Id: CORE-000008
  Status: Published
  Version: '1'
Description: Raise an error when survival status (SSSTRESC) is equal to 'DEAD' in the SS dataset, but death flag (DTHFL) is not equal to 'Y' in the DM dataset for the corresponding subject.
Executability: Fully Executable
Match Datasets:
  - Keys:
      - USUBJID
    Name: SS
Outcome:
  Message: SSSTRESC in the SS dataset is 'DEAD', but DTHFL in the DM dataset is not equal to 'Y'.
  Output Variables:
    - DTHFL
    - SSTESTCD
    - SSSTRESC
Rule Type: Record Data
Scope:
  Classes:
    Include:
      - SPECIAL PURPOSE
  Domains:
    Include:
      - DM
Sensitivity: Record
