{
    "rule": {
        "Authorities": [
            {
                "Organization": "FDA",
                "Standards": [
                    {
                        "Name": "SDTMIG",
                        "References": [
                            {
                                "Citations": [
                                    {
                                        "Document": "FDA",
                                        "Section": "FDAB015",
                                        "Cited_Guidance": "Character values should not have leading spaces or only have a period character."
                                    }
                                ],
                                "Origin": "FDA Business Rules",
                                "Version": "1.5",
                                "Rule_Identifier": {
                                    "Id": "FB1501",
                                    "Version": "1"
                                }
                            }
                        ],
                        "Version": "3.2"
                    },
                    {
                        "Name": "SDTMIG",
                        "References": [
                            {
                                "Citations": [
                                    {
                                        "Document": "FDA",
                                        "Section": "FDAB015",
                                        "Cited_Guidance": "Character values should not have leading spaces or only have a period character."
                                    }
                                ],
                                "Origin": "FDA Business Rules",
                                "Version": "1.5",
                                "Rule_Identifier": {
                                    "Id": "FB1501",
                                    "Version": "1"
                                }
                            }
                        ],
                        "Version": "3.3"
                    },
                    {
                        "Name": "SDTMIG",
                        "References": [
                            {
                                "Citations": [
                                    {
                                        "Document": "FDA",
                                        "Section": "FDAB015",
                                        "Cited_Guidance": "Character values should not have leading spaces or only have a period character."
                                    }
                                ],
                                "Origin": "FDA Business Rules",
                                "Version": "1.5",
                                "Rule_Identifier": {
                                    "Id": "FB1501",
                                    "Version": "1"
                                }
                            }
                        ],
                        "Version": "3.4"
                    },
                    {
                        "Name": "SENDIG",
                        "References": [
                            {
                                "Citations": [
                                    {
                                        "Document": "FDA",
                                        "Section": "FDAB015",
                                        "Cited_Guidance": "Character values should not have leading spaces or only have a period character."
                                    }
                                ],
                                "Origin": "FDA Business Rules",
                                "Version": "1.5",
                                "Rule_Identifier": {
                                    "Id": "FB1501",
                                    "Version": "1"
                                }
                            }
                        ],
                        "Version": "3.0"
                    },
                    {
                        "Name": "SENDIG",
                        "References": [
                            {
                                "Citations": [
                                    {
                                        "Document": "FDA",
                                        "Section": "FDAB015",
                                        "Cited_Guidance": "Character values should not have leading spaces or only have a period character."
                                    }
                                ],
                                "Origin": "FDA Business Rules",
                                "Version": "1.5",
                                "Rule_Identifier": {
                                    "Id": "FB1501",
                                    "Version": "1"
                                }
                            }
                        ],
                        "Version": "3.1"
                    },
                    {
                        "Name": "SENDIG",
                        "References": [
                            {
                                "Citations": [
                                    {
                                        "Document": "FDA",
                                        "Section": "FDAB015",
                                        "Cited_Guidance": "Character values should not have leading spaces or only have a period character."
                                    }
                                ],
                                "Origin": "FDA Business Rules",
                                "Version": "1.5",
                                "Rule_Identifier": {
                                    "Id": "FB1501",
                                    "Version": "1"
                                }
                            }
                        ],
                        "Version": "3.1.1"
                    },
                    {
                        "Name": "SENDIG-DART",
                        "References": [
                            {
                                "Citations": [
                                    {
                                        "Document": "FDA",
                                        "Section": "FDAB015",
                                        "Cited_Guidance": "Character values should not have leading spaces or only have a period character."
                                    }
                                ],
                                "Origin": "FDA Business Rules",
                                "Version": "1.5",
                                "Rule_Identifier": {
                                    "Id": "FB1501",
                                    "Version": "1"
                                }
                            }
                        ],
                        "Version": "1.1"
                    },
                    {
                        "Name": "SENDIG-DART",
                        "References": [
                            {
                                "Citations": [
                                    {
                                        "Document": "FDA",
                                        "Section": "FDAB015",
                                        "Cited_Guidance": "Character values should not have leading spaces or only have a period character."
                                    }
                                ],
                                "Origin": "FDA Business Rules",
                                "Version": "1.5",
                                "Rule_Identifier": {
                                    "Id": "FB1501",
                                    "Version": "1"
                                }
                            }
                        ],
                        "Version": "1.2"
                    },
                    {
                        "Name": "SENDIG-AR",
                        "References": [
                            {
                                "Citations": [
                                    {
                                        "Document": "FDA",
                                        "Section": "FDAB015",
                                        "Cited_Guidance": "Character values should not have leading spaces or only have a period character."
                                    }
                                ],
                                "Origin": "FDA Business Rules",
                                "Version": "1.5",
                                "Rule_Identifier": {
                                    "Id": "FB1501",
                                    "Version": "1"
                                }
                            }
                        ],
                        "Version": "1.0"
                    },
                    {
                        "Name": "SENDIG-GENETOX",
                        "References": [
                            {
                                "Citations": [
                                    {
                                        "Document": "FDA",
                                        "Section": "FDAB015",
                                        "Cited_Guidance": "Character values should not have leading spaces or only have a period character."
                                    }
                                ],
                                "Origin": "FDA Business Rules",
                                "Version": "1.5",
                                "Rule_Identifier": {
                                    "Id": "FB1501",
                                    "Version": "1"
                                }
                            }
                        ],
                        "Version": "1.0"
                    }
                ]
            }
        ],
        "Check": {
            "all": [
                {
                    "name": "variable_data_type",
                    "operator": "equal_to",
                    "value": "Char"
                },
                {
                    "name": "variable_value",
                    "operator": "matches_regex",
                    "value": "^\\s"
                }
            ]
        },
        "Core": {
            "Status": "Draft",
            "Version": "1"
        },
        "Description": "Text variables in submitted datasets should not contain strings which have leading space ' characters",
        "Executability": "Fully Executable",
        "Outcome": {
            "Message": "Text variables in submitted datasets contain strings which have leading space ' characters",
            "Output_Variables": [
                "variable_value",
                "variable_name"
            ]
        },
        "Scope": {
            "Classes": {
                "Include": [
                    "ALL"
                ]
            },
            "Domains": {
                "Include": [
                    "ALL"
                ]
            }
        },
        "Sensitivity": "Record",
        "Rule_Type": "Value Check with Variable Metadata"
    },
    "datasets": [
        {
            "filename": "cm.xpt",
            "label": "Concomitant/Prior Medications",
            "domain": "CM",
            "variables": [
                {
                    "name": "STUDYID",
                    "label": "Study Identifier",
                    "type": "Char",
                    "length": 50
                },
                {
                    "name": "DOMAIN",
                    "label": "Domain Abbreviation",
                    "type": "Char",
                    "length": 50
                },
                {
                    "name": "USUBJID",
                    "label": "Unique Subject Identifier",
                    "type": "Char",
                    "length": 50
                },
                {
                    "name": "CMSEQ",
                    "label": "Sequence Number",
                    "type": "Num",
                    "length": 8
                },
                {
                    "name": "CMTRT",
                    "label": "Reported Name of Drug, Med, or Therapy",
                    "type": "Char",
                    "length": 50
                },
                {
                    "name": "CMINDC",
                    "label": "Indication",
                    "type": "Char",
                    "length": 50
                },
                {
                    "name": "CMDOSE",
                    "label": "Dose per Administration",
                    "type": "Num",
                    "length": 8
                },
                {
                    "name": "CMDOSU",
                    "label": "Dose Units",
                    "type": "Char",
                    "length": 50
                },
                {
                    "name": "CMDOSFRQ",
                    "label": "Dosing Frequency per Interval",
                    "type": "Char",
                    "length": 50
                },
                {
                    "name": "CMROUTE",
                    "label": "Route of Administration",
                    "type": "Char",
                    "length": 50
                },
                {
                    "name": "EPOCH",
                    "label": "Epoch",
                    "type": "Char",
                    "length": 50
                },
                {
                    "name": "CMSTDTC",
                    "label": "Start Date/Time of Medication",
                    "type": "Char",
                    "length": 50
                },
                {
                    "name": "CMSTDY",
                    "label": "Study Day of Start of Medication",
                    "type": "Num",
                    "length": 8
                },
                {
                    "name": "CMENDY",
                    "label": "Study Day of End of Medication",
                    "type": "Num",
                    "length": 8
                },
                {
                    "name": "CMSTRTPT",
                    "label": "Start Relative to Reference Time Point",
                    "type": "Char",
                    "length": 50
                },
                {
                    "name": "CMSTTPT",
                    "label": "Start Reference Time Point",
                    "type": "Char",
                    "length": 50
                },
                {
                    "name": "CMENRTPT",
                    "label": "End Relative to Reference Time Point",
                    "type": "Char",
                    "length": 50
                },
                {
                    "name": "CMENTPT",
                    "label": "End Reference Time Point",
                    "type": "Char",
                    "length": 50
                }
            ],
            "records": {
                "STUDYID": [
                    "CDISCPILOT01",
                    "CDISCPILOT01",
                    "CDISCPILOT01",
                    "CDISCPILOT01"
                ],
                "DOMAIN": [
                    "CM",
                    "CM",
                    "CM",
                    "CM"
                ],
                "USUBJID": [
                    "CDISC001",
                    "CDISC001",
                    "CDISC001",
                    "CDISC001"
                ],
                "CMSEQ": [
                    1,
                    2,
                    3,
                    4
                ],
                "CMTRT": [
                    "ASPIRIN",
                    "METAMUCIL",
                    "HYDROCORTISONE, TOPICAL       ",
                    "HYTRIN"
                ],
                "CMINDC": [
                    "PROPHYLAXIS OR NON-THERAPEUTIC USE",
                    "PROPHYLAXIS OR NON-THERAPEUTIC USE",
                    "PROPHYLAXIS OR NON-THERAPEUTIC USE",
                    "PROPHYLAXIS OR NON-THERAPEUTIC USE"
                ],
                "CMDOSE": [
                    1,
                    1,
                    1,
                    2
                ],
                "CMDOSU": [
                    "TABLET",
                    "TABLET",
                    "TABLET",
                    "TABLET"
                ],
                "CMDOSFRQ": [
                    "QD",
                    "PRN",
                    "BID",
                    "Q4H"
                ],
                "CMROUTE": [
                    "ORAL",
                    "ORAL",
                    "TOPICAL",
                    "ORAL"
                ],
                "EPOCH": [
                    "SCREENING",
                    "SCREENING",
                    "TREATMENT",
                    "TREATMENT"
                ],
                "CMSTDTC": [
                    "2011",
                    "2012-08",
                    "2013-01-11",
                    "2013-04-19"
                ],
                "CMSTDY": [
                    null,
                    null,
                    43,
                    141
                ],
                "CMENDY": [
                    151,
                    null,
                    null,
                    166
                ],
                "CMSTRTPT": [
                    "BEFORE",
                    "",
                    "BEFORE",
                    ""
                ],
                "CMSTTPT": [
                    "SCREENING",
                    "",
                    "SCREENING",
                    ""
                ],
                "CMENRTPT": [
                    "",
                    "ONGOING",
                    "ONGOING",
                    ""
                ],
                "CMENTPT": [
                    "",
                    "",
                    "",
                    ""
                ]
            }
        },
        {
            "filename": "ce.xpt",
            "label": "Clinical Events",
            "domain": "CE",
            "variables": [
                {
                    "name": "STUDYID",
                    "label": "Study Identifier",
                    "type": "Char",
                    "length": 50
                },
                {
                    "name": "DOMAIN",
                    "label": "Domain Abbreviation",
                    "type": "Char",
                    "length": 50
                },
                {
                    "name": "USUBJID",
                    "label": "Unique Subject Identifier",
                    "type": "Char",
                    "length": 50
                },
                {
                    "name": "CESEQ",
                    "label": "Sequence Number",
                    "type": "Num",
                    "length": 8
                },
                {
                    "name": "CEGRPID",
                    "label": "Group ID",
                    "type": "Char",
                    "length": 50
                },
                {
                    "name": "CETERM",
                    "label": "Reported Term for the Clinical Event",
                    "type": "Char",
                    "length": 50
                },
                {
                    "name": "CESEV",
                    "label": "Severity/Intensity",
                    "type": "Char",
                    "length": 50
                },
                {
                    "name": "EPOCH",
                    "label": "Epoch",
                    "type": "Char",
                    "length": 50
                },
                {
                    "name": "CEDTC",
                    "label": "Start Date/Time of Event Collection",
                    "type": "Char",
                    "length": 50
                },
                {
                    "name": "CESTDTC",
                    "label": "Start Date/Time of Clinical Event",
                    "type": "Char",
                    "length": 50
                },
                {
                    "name": "CESTDY",
                    "label": "Study Day of Start of Event",
                    "type": "Num",
                    "length": 8
                },
                {
                    "name": "CEENDY",
                    "label": "Study Day of End of Event",
                    "type": "Num",
                    "length": 8
                },
                {
                    "name": "CESTRTPT",
                    "label": "Start Relative to Reference Time Point",
                    "type": "Char",
                    "length": 50
                },
                {
                    "name": "CESTTPT",
                    "label": "Start Reference Time Point",
                    "type": "Char",
                    "length": 50
                },
                {
                    "name": "CEENRTPT",
                    "label": "End Relative to Reference Time Point",
                    "type": "Char",
                    "length": 50
                },
                {
                    "name": "CEENTPT",
                    "label": "End Reference Time Point",
                    "type": "Char",
                    "length": 50
                }
            ],
            "records": {
                "STUDYID": [
                    "CDISCPILOT01",
                    "CDISCPILOT01",
                    "CDISCPILOT01",
                    "CDISCPILOT01",
                    "CDISCPILOT01",
                    "CDISCPILOT01",
                    "CDISCPILOT01",
                    "CDISCPILOT01",
                    "CDISCPILOT01",
                    "CDISCPILOT01",
                    "CDISCPILOT01",
                    "CDISCPILOT01",
                    "CDISCPILOT01",
                    "CDISCPILOT01"
                ],
                "DOMAIN": [
                    "CE",
                    "CE",
                    "CE",
                    "CE",
                    "CE",
                    "CE",
                    "CE",
                    "CE",
                    "CE",
                    "CE",
                    "CE",
                    "CE",
                    "CE",
                    "CE"
                ],
                "USUBJID": [
                    "CDISC001",
                    "CDISC002",
                    "CDISC002",
                    "CDISC003",
                    "CDISC005",
                    "CDISC005",
                    "CDISC005",
                    "CDISC005",
                    "CDISC007",
                    "CDISC011",
                    "CDISC011",
                    "CDISC014",
                    "CDISC017",
                    "CDISC018"
                ],
                "CESEQ": [
                    1,
                    1,
                    5,
                    14,
                    1,
                    2,
                    3,
                    4,
                    1,
                    2,
                    4,
                    1,
                    5,
                    8
                ],
                "CEGRPID": [
                    "1",
                    "1",
                    "5",
                    "14",
                    "1",
                    "2",
                    "4",
                    "5",
                    "1",
                    "2",
                    "4",
                    "1",
                    "5",
                    "8"
                ],
                "CETERM": [
                    "INJECTION SITE REACTION",
                    "INJECTION SITE REACTION",
                    "INJECTION SITE REACTION",
                    "INJECTION SITE REACTION",
                    "INJECTION SITE REACTION",
                    "INJECTION SITE REACTION",
                    "INJECTION SITE REACTION",
                    "INJECTION SITE REACTION",
                    "INJECTION SITE REACTION",
                    "INJECTION SITE REACTION",
                    "INJECTION SITE REACTION",
                    "INJECTION SITE REACTION",
                    "INJECTION SITE REACTION",
                    "INJECTION SITE REACTION"
                ],
                "CESEV": [
                    "MODERATE",
                    "MILD",
                    "MILD",
                    "MILD",
                    "MILD",
                    "MILD",
                    "MILD",
                    "MILD",
                    "MODERATE",
                    "MILD",
                    "MILD",
                    "MODERATE",
                    "MODERATE",
                    "MODERATE"
                ],
                "EPOCH": [
                    "TREATMENT",
                    "TREATMENT",
                    "TREATMENT",
                    "TREATMENT",
                    "TREATMENT",
                    "TREATMENT",
                    "TREATMENT",
                    "TREATMENT",
                    "TREATMENT",
                    "TREATMENT",
                    "TREATMENT",
                    "TREATMENT",
                    "TREATMENT",
                    "TREATMENT"
                ],
                "CEDTC": [
                    "",
                    "",
                    "",
                    "",
                    "",
                    "",
                    "",
                    "",
                    "",
                    "",
                    "",
                    "",
                    "",
                    ""
                ],
                "CESTDTC": [
                    "2012-12-02",
                    "2012-11-16",
                    "2012-11-29",
                    "2013-10-15",
                    "2013-02-07",
                    "2013-03-23",
                    "2013-03-23",
                    "2013-04-12",
                    "2013-01-19",
                    "2013-01-12",
                    "2013-04-10",
                    "2013-04-16",
                    "2013-12-29",
                    "2013-01-27"
                ],
                "CESTDY": [
                    3,
                    2,
                    15,
                    48,
                    4,
                    48,
                    48,
                    68,
                    15,
                    37,
                    125,
                    14,
                    100,
                    42
                ],
                "CEENDY": [
                    null,
                    null,
                    null,
                    null,
                    4,
                    null,
                    51,
                    null,
                    null,
                    37,
                    181,
                    30,
                    152,
                    43
                ],
                "CESTRTPT": [
                    "",
                    "AFTER",
                    "",
                    "COINCIDENT",
                    "",
                    "",
                    "",
                    "",
                    "",
                    "",
                    "DURING/AFTER",
                    "",
                    "",
                    ""
                ],
                "CESTTPT": [
                    "",
                    "FIRST DOSE",
                    "",
                    "FIRST DOSE",
                    "",
                    "",
                    "",
                    "",
                    "",
                    "",
                    "FIRST DOSE",
                    "",
                    "",
                    ""
                ],
                "CEENRTPT": [
                    "ONGOING",
                    "ONGOING",
                    "ONGOING",
                    "",
                    "",
                    "ONGOING",
                    "",
                    "ONGOING",
                    "ONGOING",
                    "",
                    "",
                    "",
                    "",
                    ""
                ],
                "CEENTPT": [
                    "",
                    "",
                    "",
                    "",
                    "",
                    "",
                    "",
                    "",
                    "",
                    "",
                    "",
                    "",
                    "",
                    ""
                ]
            }
        },
        {
            "filename": "lb.xpt",
            "label": "Laboratory Test Results",
            "domain": "LB",
            "variables": [
                {
                    "name": "STUDYID",
                    "label": "Study Identifier",
                    "type": "Char",
                    "length": 12
                },
                {
                    "name": "DOMAIN",
                    "label": "Domain Abbreviation",
                    "type": "Char",
                    "length": 2
                },
                {
                    "name": "USUBJID",
                    "label": "Unique Subject Identifier",
                    "type": "Char",
                    "length": 8
                },
                {
                    "name": "LBSEQ",
                    "label": "Sequence Number",
                    "type": "Num",
                    "length": 8
                },
                {
                    "name": "LBTESTCD",
                    "label": "Lab Test or Examination Short Name",
                    "type": "Char",
                    "length": 7
                },
                {
                    "name": "LBTEST",
                    "label": "Lab Test or Examination Name",
                    "type": "Char",
                    "length": 39
                },
                {
                    "name": "LBCAT",
                    "label": "Category for Lab Test",
                    "type": "Char",
                    "length": 10
                },
                {
                    "name": "LBORRES",
                    "label": "Result or Finding in Original Units",
                    "type": "Char",
                    "length": 6
                },
                {
                    "name": "LBORRESU",
                    "label": "Original Units",
                    "type": "Char",
                    "length": 7
                },
                {
                    "name": "LBORNRLO",
                    "label": "Reference Range Lower Limit in Orig Unit",
                    "type": "Char",
                    "length": 200
                },
                {
                    "name": "LBORNRHI",
                    "label": "Reference Range Upper Limit in Orig Unit",
                    "type": "Char",
                    "length": 200
                },
                {
                    "name": "LBSTRESC",
                    "label": "Character Result/Finding in Std Format",
                    "type": "Char",
                    "length": 8
                },
                {
                    "name": "LBSTRESN",
                    "label": "Numeric Result/Finding in Standard Units",
                    "type": "Num",
                    "length": 8
                },
                {
                    "name": "LBSTRESU",
                    "label": "Standard Units",
                    "type": "Char",
                    "length": 7
                },
                {
                    "name": "LBSTNRLO",
                    "label": "Reference Range Lower Limit-Std Units",
                    "type": "Num",
                    "length": 8
                },
                {
                    "name": "LBSTNRHI",
                    "label": "Reference Range Upper Limit-Std Units",
                    "type": "Num",
                    "length": 8
                },
                {
                    "name": "LBNRIND",
                    "label": "Reference Range Indicator",
                    "type": "Char",
                    "length": 8
                },
                {
                    "name": "LBLOBXFL",
                    "label": "Last Observation Before Exposure Flag",
                    "type": "Char",
                    "length": 1
                },
                {
                    "name": "VISITNUM",
                    "label": "Visit Number",
                    "type": "Num",
                    "length": 8
                },
                {
                    "name": "VISIT",
                    "label": "Visit Name",
                    "type": "Char",
                    "length": 200
                },
                {
                    "name": "EPOCH",
                    "label": "Epoch",
                    "type": "Char",
                    "length": 9
                },
                {
                    "name": "LBSTDTC",
                    "label": "Start Date/Time of Specimen Collection",
                    "type": "Char",
                    "length": 19
                },
                {
                    "name": "LBENDY",
                    "label": "Study Day of Start of Specimen Collection",
                    "type": "Num",
                    "length": 8
                },
                {
                    "name": "LBENRTPT",
                    "label": "End Relative to Reference Time Point",
                    "type": "Char",
                    "length": 50
                },
                {
                    "name": "LBENTPT",
                    "label": "End Reference Time Point",
                    "type": "Char",
                    "length": 50
                }
            ],
            "records": {
                "STUDYID": [
                    "CDISCPILOT01",
                    "CDISCPILOT01",
                    "CDISCPILOT01",
                    "CDISCPILOT01",
                    "CDISCPILOT01"
                ],
                "DOMAIN": [
                    "LB",
                    "LB",
                    "LB",
                    "LB",
                    "LB"
                ],
                "USUBJID": [
                    "CDISC001",
                    "CDISC001",
                    "CDISC001",
                    "CDISC001",
                    "CDISC001"
                ],
                "LBSEQ": [
                    1,
                    2,
                    3,
                    4,
                    5
                ],
                "LBTESTCD": [
                    "ALB",
                    "ALP",
                    "ALB",
                    "ALP",
                    "BASO"
                ],
                "LBTEST": [
                    "Albumin",
                    "Alkaline Phosphatase",
                    "Albumin",
                    "Alkaline Phosphatase",
                    "Basophils"
                ],
                "LBCAT": [
                    "CHEMISTRY",
                    "CHEMISTRY",
                    "CHEMISTRY",
                    "CHEMISTRY",
                    "HEMATOLOGY"
                ],
                "LBORRES": [
                    "3.9",
                    "93",
                    "18",
                    "26",
                    "0.03"
                ],
                "LBORRESU": [
                    "g/dL",
                    "U/L",
                    "U/L",
                    "U/L",
                    "10^9/L"
                ],
                "LBORNRLO": [
                    "3.5",
                    "35",
                    "6",
                    "11",
                    "0"
                ],
                "LBORNRHI": [
                    "4.6",
                    "115",
                    "35",
                    "36",
                    "0.2"
                ],
                "LBSTRESC": [
                    "39",
                    "93",
                    "18",
                    "26",
                    "0.03"
                ],
                "LBSTRESN": [
                    39,
                    93,
                    18,
                    26,
                    0.03
                ],
                "LBSTRESU": [
                    "g/L",
                    "U/L",
                    "U/L",
                    "U/L",
                    "10^9/L"
                ],
                "LBSTNRLO": [
                    null,
                    35,
                    6,
                    null,
                    0
                ],
                "LBSTNRHI": [
                    null,
                    35,
                    null,
                    36,
                    0.1
                ],
                "LBNRIND": [
                    "NORMAL",
                    "NORMAL",
                    "NORMAL",
                    "NORMAL",
                    "NORMAL"
                ],
                "LBLOBXFL": [
                    "Y",
                    "Y",
                    "Y",
                    "Y",
                    "Y"
                ],
                "VISITNUM": [
                    1,
                    1,
                    1,
                    1,
                    1
                ],
                "VISIT": [
                    "SCREENING 1",
                    "SCREENING 1",
                    "SCREENING 1",
                    "SCREENING 1",
                    "SCREENING 1"
                ],
                "EPOCH": [
                    "SCREENING",
                    "SCREENING",
                    "SCREENING",
                    "SCREENING",
                    "SCREENING"
                ],
                "LBSTDTC": [
                    "2012-11-23T11:20",
                    "2012-11-23T11:20",
                    "2012-11-23T11:20",
                    "2012-11-23T11:20",
                    "2012-11-23T11:20"
                ],
                "LBENDY": [
                    null,
                    null,
                    null,
                    null,
                    null
                ],
                "LBENRTPT": [
                    "COINCIDENT",
                    "COINCIDENT",
                    "",
                    "COINCIDENT",
                    ""
                ],
                "LBENTPT": [
                    "",
                    "",
                    "",
                    "",
                    ""
                ]
            }
        },
        {
            "filename": "se.xpt",
            "label": "Subject Elements",
            "domain": "SE",
            "variables": [
                {
                    "name": "STUDYID",
                    "label": "Study Identifier",
                    "type": "Char",
                    "length": 12
                },
                {
                    "name": "DOMAIN",
                    "label": "Domain Abbreviation",
                    "type": "Char",
                    "length": 2
                },
                {
                    "name": "USUBJID",
                    "label": "Unique Subject Identifier",
                    "type": "Char",
                    "length": 8
                },
                {
                    "name": "SESEQ",
                    "label": "Sequence Number",
                    "type": "Num",
                    "length": 8
                },
                {
                    "name": "ETCD",
                    "label": "Element Code",
                    "type": "Char",
                    "length": 7
                },
                {
                    "name": "ELEMENT",
                    "label": "Description of Element",
                    "type": "Char",
                    "length": 26
                },
                {
                    "name": "EPOCH",
                    "label": "Epoch",
                    "type": "Char",
                    "length": 9
                },
                {
                    "name": "SESTDTC",
                    "label": "Start Date/Time of Element",
                    "type": "Char",
                    "length": 10
                },
                {
                    "name": "SEENRTPT",
                    "label": "End Relative to Reference Time Point",
                    "type": "Char",
                    "length": 50
                },
                {
                    "name": "SEENTPT",
                    "label": "End Reference Time Point",
                    "type": "Char",
                    "length": 50
                },
                {
                    "name": "SESTDY",
                    "label": "Study Day of Start of Element",
                    "type": "Num",
                    "length": 8
                },
                {
                    "name": "SEENDY",
                    "label": "Study Day of End of Element",
                    "type": "Num",
                    "length": 8
                }
            ],
            "records": {
                "STUDYID": [
                    "CDISCPILOT01"
                ],
                "DOMAIN": [
                    "SE"
                ],
                "USUBJID": [
                    "CDISC001"
                ],
                "SESEQ": [
                    1
                ],
                "ETCD": [
                    "SCREEN"
                ],
                "ELEMENT": [
                    "Screening"
                ],
                "EPOCH": [
                    "SCREENING"
                ],
                "SESTDTC": [
                    "2012-11-23"
                ],
                "SEENRTPT": [
                    "BEFORE"
                ],
                "SEENTPT": [
                    ""
                ],
                "SESTDY": [
                    -7
                ],
                "SEENDY": [
                    1
                ]
            }
        }
    ],
    "standard": {
        "product": "sdtmig",
        "version": "3-3"
    },
    "codelists": []
}