{4 items
"rule":{9 items
"Authorities":[1 item
0:{2 items
"Organization":"FDA"
"Standards":[10 items
0:{3 items
"Name":"SDTMIG"
"References":[1 item
0:{4 items
"Citations":[1 item
0:{3 items
"Document":"FDA"
"Section":"FDAB039"
"Cited_Guidance":"Upper limit of reference range should be greater than lower limit, whenever both are submitted."
}
]
"Origin":"FDA Business Rules"
"Version":"1.5"
"Rule_Identifier":{2 items
"Id":"FB3901"
"Version":"1"
}
}
]
"Version":"3.2"
}
1:{3 items
"Name":"SDTMIG"
"References":[1 item
0:{4 items
"Citations":[1 item
0:{3 items
"Document":"FDA"
"Section":"FDAB039"
"Cited_Guidance":"Upper limit of reference range should be greater than lower limit, whenever both are submitted."
}
]
"Origin":"FDA Business Rules"
"Version":"1.5"
"Rule_Identifier":{2 items
"Id":"FB3901"
"Version":"1"
}
}
]
"Version":"3.3"
}
2:{3 items
"Name":"SDTMIG"
"References":[1 item
0:{4 items
"Citations":[1 item
0:{3 items
"Document":"FDA"
"Section":"FDAB039"
"Cited_Guidance":"Upper limit of reference range should be greater than lower limit, whenever both are submitted."
}
]
"Origin":"FDA Business Rules"
"Version":"1.5"
"Rule_Identifier":{2 items
"Id":"FB3901"
"Version":"1"
}
}
]
"Version":"3.4"
}
3:{3 items
"Name":"SENDIG"
"References":[1 item
0:{4 items
"Citations":[1 item
0:{3 items
"Document":"FDA"
"Section":"FDAB039"
"Cited_Guidance":"Upper limit of reference range should be greater than lower limit, whenever both are submitted."
}
]
"Origin":"FDA Business Rules"
"Version":"1.5"
"Rule_Identifier":{2 items
"Id":"FB3901"
"Version":"1"
}
}
]
"Version":"3.0"
}
4:{3 items
"Name":"SENDIG"
"References":[1 item
0:{4 items
"Citations":[1 item
0:{3 items
"Document":"FDA"
"Section":"FDAB039"
"Cited_Guidance":"Upper limit of reference range should be greater than lower limit, whenever both are submitted."
}
]
"Origin":"FDA Business Rules"
"Version":"1.5"
"Rule_Identifier":{2 items
"Id":"FB3901"
"Version":"1"
}
}
]
"Version":"3.1"
}
5:{3 items
"Name":"SENDIG"
"References":[1 item
0:{4 items
"Citations":[1 item
0:{3 items
"Document":"FDA"
"Section":"FDAB039"
"Cited_Guidance":"Upper limit of reference range should be greater than lower limit, whenever both are submitted."
}
]
"Origin":"FDA Business Rules"
"Version":"1.5"
"Rule_Identifier":{2 items
"Id":"FB3901"
"Version":"1"
}
}
]
"Version":"3.1.1"
}
6:{3 items
"Name":"SENDIG-DART"
"References":[1 item
0:{4 items
"Citations":[1 item
0:{3 items
"Document":"FDA"
"Section":"FDAB039"
"Cited_Guidance":"Upper limit of reference range should be greater than lower limit, whenever both are submitted."
}
]
"Origin":"FDA Business Rules"
"Version":"1.5"
"Rule_Identifier":{2 items
"Id":"FB3901"
"Version":"1"
}
}
]
"Version":"1.1"
}
7:{3 items
"Name":"SENDIG-DART"
"References":[1 item
0:{4 items
"Citations":[1 item
0:{3 items
"Document":"FDA"
"Section":"FDAB039"
"Cited_Guidance":"Upper limit of reference range should be greater than lower limit, whenever both are submitted."
}
]
"Origin":"FDA Business Rules"
"Version":"1.5"
"Rule_Identifier":{2 items
"Id":"FB3901"
"Version":"1"
}
}
]
"Version":"1.2"
}
8:{3 items
"Name":"SENDIG-GENETOX"
"References":[1 item
0:{4 items
"Citations":[1 item
0:{3 items
"Document":"FDA"
"Section":"FDAB039"
"Cited_Guidance":"Upper limit of reference range should be greater than lower limit, whenever both are submitted."
}
]
"Origin":"FDA Business Rules"
"Version":"1.5"
"Rule_Identifier":{2 items
"Id":"FB3901"
"Version":"1"
}
}
]
"Version":"1.0"
}
9:{3 items
"Name":"SENDIG-AR"
"References":[1 item
0:{4 items
"Citations":[1 item
0:{3 items
"Document":"FDA"
"Section":"FDAB039"
"Cited_Guidance":"Upper limit of reference range should be greater than lower limit, whenever both are submitted."
}
]
"Origin":"FDA Business Rules"
"Version":"1.5"
"Rule_Identifier":{2 items
"Id":"FB3901"
"Version":"1"
}
}
]
"Version":"1.0"
}
]
}
]
"Check":{1 item
"all":[3 items
0:{2 items
"name":"--STNRHI"
"operator":"non_empty"
}
1:{2 items
"name":"--STNRLO"
"operator":"non_empty"
}
2:{3 items
"name":"--STNRHI"
"operator":"less_than"
"value":"--STNRLO"
}
]
}
"Core":{3 items
"Id":"CORE-000672"
"Status":"Published"
"Version":"1"
}
"Description":""
"Executability":"Fully Executable"
"Outcome":{1 item
"Message":"The value of --STNRHI must be higher than the value of --STNRLO"
}
"Scope":{2 items
"Classes":{1 item
"Include":[1 item
0:"FINDINGS"
]
}
"Domains":{1 item
"Include":[1 item
0:"ALL"
]
}
}
"Sensitivity":"Record"
"Rule_Type":"Record Data"
}
"datasets":[1 item
0:{5 items
"filename":"lb.xpt"
"label":"Laboratory"
"domain":"LB"
"variables":[29 items
0:{4 items
"name":"STUDYID"
"label":"Study Identifier"
"type":"Char"
"length":10
}
1:{4 items
"name":"DOMAIN"
"label":"Domain Abbreviation"
"type":"Char"
"length":2
}
2:{4 items
"name":"USUBJID"
"label":"Unique Subject Identifier"
"type":"Char"
"length":14
}
3:{4 items
"name":"POOLID"
"label":"Pool Identifier"
"type":"Char"
"length":10
}
4:{4 items
"name":"LBSEQ"
"label":"Sequence Number"
"type":"Num"
"length":8
}
5:{4 items
"name":"LBSPID"
"label":"Sponsor-Defined Identifier"
"type":"Char"
"length":4
}
6:{4 items
"name":"LBTESTCD"
"label":"Lab Test or Examination Short Name"
"type":"Char"
"length":8
}
7:{4 items
"name":"LBTEST"
"label":"Lab Test or Examination Name"
"type":"Char"
"length":25
}
8:{4 items
"name":"LBCAT"
"label":"Category for Lab Test"
"type":"Char"
"length":18
}
9:{4 items
"name":"LBORRES"
"label":"Result or Finding in Original Units"
"type":"Char"
"length":6
}
10:{4 items
"name":"LBORRESU"
"label":"Original Units"
"type":"Char"
"length":8
}
11:{4 items
"name":"LBORNRLO"
"label":"Reference Range Lower Limit in Orig Unit"
"type":"Char"
"length":1
}
12:{4 items
"name":"LBORNRHI"
"label":"Reference Range Upper Limit in Orig Unit"
"type":"Char"
"length":1
}
13:{4 items
"name":"LBSPEC2"
"label":"Specimen"
"type":"Char"
"length":10
}
14:{4 items
"name":"LBSTRESC"
"label":"Character Result/Finding in Std Format"
"type":"Char"
"length":6
}
15:{4 items
"name":"LBSTRESN"
"label":"Numeric Result/Finding in Standard Units"
"type":"Num"
"length":8
}
16:{4 items
"name":"LBSTRESU"
"label":"Standard Units"
"type":"Char"
"length":8
}
17:{4 items
"name":"LBSTNRLO"
"label":"Reference Range Lower Limit-Std Units"
"type":"Num"
"length":8
}
18:{4 items
"name":"LBSTNRHI"
"label":"Reference Range Upper Limit-Std Units"
"type":"Num"
"length":8
}
19:{4 items
"name":"LBNRIND"
"label":"Reference Range Indicator"
"type":"Char"
"length":1
}
20:{4 items
"name":"LBLOINC"
"label":"LOINC Code"
"type":"Char"
"length":7
}
21:{4 items
"name":"LBSPEC"
"label":"Specimen Type"
"type":"Char"
"length":5
}
22:{4 items
"name":"LBDRVFL"
"label":"Derived Flag"
"type":"Char"
"length":1
}
23:{4 items
"name":"LBBLFL"
"label":"Baseline Flag"
"type":"Char"
"length":1
}
24:{4 items
"name":"EPOCH"
"label":"Epoch"
"type":"Char"
"length":9
}
25:{4 items
"name":"VISITNUM"
"label":"Visit Number"
"type":"Num"
"length":8
}
26:{4 items
"name":"VISIT"
"label":"Visit Name"
"type":"Char"
"length":18
}
27:{4 items
"name":"LBDTC"
"label":"Date/Time of Specimen Collection"
"type":"Char"
"length":10
}
28:{4 items
"name":"LBDY"
"label":"Study Day of Specimen Collection"
"type":"Num"
"length":8
}
]
"records":{29 items
"STUDYID":4454 items
[0 - 100]
[100 - 200]
[200 - 300]
[300 - 400]
[400 - 500]
[500 - 600]
[600 - 700]
[700 - 800]
[800 - 900]
[900 - 1000]
[1000 - 1100]
[1100 - 1200]
[1200 - 1300]
[1300 - 1400]
[1400 - 1500]
[1500 - 1600]
[1600 - 1700]
[1700 - 1800]
[1800 - 1900]
[1900 - 2000]
[2000 - 2100]
[2100 - 2200]
[2200 - 2300]
[2300 - 2400]
[2400 - 2500]
[2500 - 2600]
[2600 - 2700]
[2700 - 2800]
[2800 - 2900]
[2900 - 3000]
[3000 - 3100]
[3100 - 3200]
[3200 - 3300]
[3300 - 3400]
[3400 - 3500]
[3500 - 3600]
[3600 - 3700]
[3700 - 3800]
[3800 - 3900]
[3900 - 4000]
[4000 - 4100]
[4100 - 4200]
[4200 - 4300]
[4300 - 4400]
[4400 - 4454]
"DOMAIN":4454 items
[0 - 100]
[100 - 200]
[200 - 300]
[300 - 400]
[400 - 500]
[500 - 600]
[600 - 700]
[700 - 800]
[800 - 900]
[900 - 1000]
[1000 - 1100]
[1100 - 1200]
[1200 - 1300]
[1300 - 1400]
[1400 - 1500]
[1500 - 1600]
[1600 - 1700]
[1700 - 1800]
[1800 - 1900]
[1900 - 2000]
[2000 - 2100]
[2100 - 2200]
[2200 - 2300]
[2300 - 2400]
[2400 - 2500]
[2500 - 2600]
[2600 - 2700]
[2700 - 2800]
[2800 - 2900]
[2900 - 3000]
[3000 - 3100]
[3100 - 3200]
[3200 - 3300]
[3300 - 3400]
[3400 - 3500]
[3500 - 3600]
[3600 - 3700]
[3700 - 3800]
[3800 - 3900]
[3900 - 4000]
[4000 - 4100]
[4100 - 4200]
[4200 - 4300]
[4300 - 4400]
[4400 - 4454]
"USUBJID":4454 items
[0 - 100]
[100 - 200]
[200 - 300]
[300 - 400]
[400 - 500]
[500 - 600]
[600 - 700]
[700 - 800]
[800 - 900]
[900 - 1000]
[1000 - 1100]
[1100 - 1200]
[1200 - 1300]
[1300 - 1400]
[1400 - 1500]
[1500 - 1600]
[1600 - 1700]
[1700 - 1800]
[1800 - 1900]
[1900 - 2000]
[2000 - 2100]
[2100 - 2200]
[2200 - 2300]
[2300 - 2400]
[2400 - 2500]
[2500 - 2600]
[2600 - 2700]
[2700 - 2800]
[2800 - 2900]
[2900 - 3000]
[3000 - 3100]
[3100 - 3200]
[3200 - 3300]
[3300 - 3400]
[3400 - 3500]
[3500 - 3600]
[3600 - 3700]
[3700 - 3800]
[3800 - 3900]
[3900 - 4000]
[4000 - 4100]
[4100 - 4200]
[4200 - 4300]
[4300 - 4400]
[4400 - 4454]
"POOLID":4454 items
[0 - 100]
[100 - 200]
[200 - 300]
[300 - 400]
[400 - 500]
[500 - 600]
[600 - 700]
[700 - 800]
[800 - 900]
[900 - 1000]
[1000 - 1100]
[1100 - 1200]
[1200 - 1300]
[1300 - 1400]
[1400 - 1500]
[1500 - 1600]
[1600 - 1700]
[1700 - 1800]
[1800 - 1900]
[1900 - 2000]
[2000 - 2100]
[2100 - 2200]
[2200 - 2300]
[2300 - 2400]
[2400 - 2500]
[2500 - 2600]
[2600 - 2700]
[2700 - 2800]
[2800 - 2900]
[2900 - 3000]
[3000 - 3100]
[3100 - 3200]
[3200 - 3300]
[3300 - 3400]
[3400 - 3500]
[3500 - 3600]
[3600 - 3700]
[3700 - 3800]
[3800 - 3900]
[3900 - 4000]
[4000 - 4100]
[4100 - 4200]
[4200 - 4300]
[4300 - 4400]
[4400 - 4454]
"LBSEQ":4454 items
[0 - 100]
[100 - 200]
[200 - 300]
[300 - 400]
[400 - 500]
[500 - 600]
[600 - 700]
[700 - 800]
[800 - 900]
[900 - 1000]
[1000 - 1100]
[1100 - 1200]
[1200 - 1300]
[1300 - 1400]
[1400 - 1500]
[1500 - 1600]
[1600 - 1700]
[1700 - 1800]
[1800 - 1900]
[1900 - 2000]
[2000 - 2100]
[2100 - 2200]
[2200 - 2300]
[2300 - 2400]
[2400 - 2500]
[2500 - 2600]
[2600 - 2700]
[2700 - 2800]
[2800 - 2900]
[2900 - 3000]
[3000 - 3100]
[3100 - 3200]
[3200 - 3300]
[3300 - 3400]
[3400 - 3500]
[3500 - 3600]
[3600 - 3700]
[3700 - 3800]
[3800 - 3900]
[3900 - 4000]
[4000 - 4100]
[4100 - 4200]
[4200 - 4300]
[4300 - 4400]
[4400 - 4454]
"LBSPID":4454 items
[0 - 100]
[100 - 200]
[200 - 300]
[300 - 400]
[400 - 500]
[500 - 600]
[600 - 700]
[700 - 800]
[800 - 900]
[900 - 1000]
[1000 - 1100]
[1100 - 1200]
[1200 - 1300]
[1300 - 1400]
[1400 - 1500]
[1500 - 1600]
[1600 - 1700]
[1700 - 1800]
[1800 - 1900]
[1900 - 2000]
[2000 - 2100]
[2100 - 2200]
[2200 - 2300]
[2300 - 2400]
[2400 - 2500]
[2500 - 2600]
[2600 - 2700]
[2700 - 2800]
[2800 - 2900]
[2900 - 3000]
[3000 - 3100]
[3100 - 3200]
[3200 - 3300]
[3300 - 3400]
[3400 - 3500]
[3500 - 3600]
[3600 - 3700]
[3700 - 3800]
[3800 - 3900]
[3900 - 4000]
[4000 - 4100]
[4100 - 4200]
[4200 - 4300]
[4300 - 4400]
[4400 - 4454]
"LBTESTCD":4454 items
[0 - 100]
[100 - 200]
[200 - 300]
[300 - 400]
[400 - 500]
[500 - 600]
[600 - 700]
[700 - 800]
[800 - 900]
[900 - 1000]
[1000 - 1100]
[1100 - 1200]
[1200 - 1300]
[1300 - 1400]
[1400 - 1500]
[1500 - 1600]
[1600 - 1700]
[1700 - 1800]
[1800 - 1900]
[1900 - 2000]
[2000 - 2100]
[2100 - 2200]
[2200 - 2300]
[2300 - 2400]
[2400 - 2500]
[2500 - 2600]
[2600 - 2700]
[2700 - 2800]
[2800 - 2900]
[2900 - 3000]
[3000 - 3100]
[3100 - 3200]
[3200 - 3300]
[3300 - 3400]
[3400 - 3500]
[3500 - 3600]
[3600 - 3700]
[3700 - 3800]
[3800 - 3900]
[3900 - 4000]
[4000 - 4100]
[4100 - 4200]
[4200 - 4300]
[4300 - 4400]
[4400 - 4454]
"LBTEST":4454 items
[0 - 100]
[100 - 200]
[200 - 300]
[300 - 400]
[400 - 500]
[500 - 600]
[600 - 700]
[700 - 800]
[800 - 900]
[900 - 1000]
[1000 - 1100]
[1100 - 1200]
[1200 - 1300]
[1300 - 1400]
[1400 - 1500]
[1500 - 1600]
[1600 - 1700]
[1700 - 1800]
[1800 - 1900]
[1900 - 2000]
[2000 - 2100]
[2100 - 2200]
[2200 - 2300]
[2300 - 2400]
[2400 - 2500]
[2500 - 2600]
[2600 - 2700]
[2700 - 2800]
[2800 - 2900]
[2900 - 3000]
[3000 - 3100]
[3100 - 3200]
[3200 - 3300]
[3300 - 3400]
[3400 - 3500]
[3500 - 3600]
[3600 - 3700]
[3700 - 3800]
[3800 - 3900]
[3900 - 4000]
[4000 - 4100]
[4100 - 4200]
[4200 - 4300]
[4300 - 4400]
[4400 - 4454]
"LBCAT":4454 items
[0 - 100]
[100 - 200]
[200 - 300]
[300 - 400]
[400 - 500]
[500 - 600]
[600 - 700]
[700 - 800]
[800 - 900]
[900 - 1000]
[1000 - 1100]
[1100 - 1200]
[1200 - 1300]
[1300 - 1400]
[1400 - 1500]
[1500 - 1600]
[1600 - 1700]
[1700 - 1800]
[1800 - 1900]
[1900 - 2000]
[2000 - 2100]
[2100 - 2200]
[2200 - 2300]
[2300 - 2400]
[2400 - 2500]
[2500 - 2600]
[2600 - 2700]
[2700 - 2800]
[2800 - 2900]
[2900 - 3000]
[3000 - 3100]
[3100 - 3200]
[3200 - 3300]
[3300 - 3400]
[3400 - 3500]
[3500 - 3600]
[3600 - 3700]
[3700 - 3800]
[3800 - 3900]
[3900 - 4000]
[4000 - 4100]
[4100 - 4200]
[4200 - 4300]
[4300 - 4400]
[4400 - 4454]
"LBORRES":4454 items
[0 - 100]
[100 - 200]
[200 - 300]
[300 - 400]
[400 - 500]
[500 - 600]
[600 - 700]
[700 - 800]
[800 - 900]
[900 - 1000]
[1000 - 1100]
[1100 - 1200]
[1200 - 1300]
[1300 - 1400]
[1400 - 1500]
[1500 - 1600]
[1600 - 1700]
[1700 - 1800]
[1800 - 1900]
[1900 - 2000]
[2000 - 2100]
[2100 - 2200]
[2200 - 2300]
[2300 - 2400]
[2400 - 2500]
[2500 - 2600]
[2600 - 2700]
[2700 - 2800]
[2800 - 2900]
[2900 - 3000]
[3000 - 3100]
[3100 - 3200]
[3200 - 3300]
[3300 - 3400]
[3400 - 3500]
[3500 - 3600]
[3600 - 3700]
[3700 - 3800]
[3800 - 3900]
[3900 - 4000]
[4000 - 4100]
[4100 - 4200]
[4200 - 4300]
[4300 - 4400]
[4400 - 4454]
"LBORRESU":4454 items
[0 - 100]
[100 - 200]
[200 - 300]
[300 - 400]
[400 - 500]
[500 - 600]
[600 - 700]
[700 - 800]
[800 - 900]
[900 - 1000]
[1000 - 1100]
[1100 - 1200]
[1200 - 1300]
[1300 - 1400]
[1400 - 1500]
[1500 - 1600]
[1600 - 1700]
[1700 - 1800]
[1800 - 1900]
[1900 - 2000]
[2000 - 2100]
[2100 - 2200]
[2200 - 2300]
[2300 - 2400]
[2400 - 2500]
[2500 - 2600]
[2600 - 2700]
[2700 - 2800]
[2800 - 2900]
[2900 - 3000]
[3000 - 3100]
[3100 - 3200]
[3200 - 3300]
[3300 - 3400]
[3400 - 3500]
[3500 - 3600]
[3600 - 3700]
[3700 - 3800]
[3800 - 3900]
[3900 - 4000]
[4000 - 4100]
[4100 - 4200]
[4200 - 4300]
[4300 - 4400]
[4400 - 4454]
"LBORNRLO":4454 items
[0 - 100]
[100 - 200]
[200 - 300]
[300 - 400]
[400 - 500]
[500 - 600]
[600 - 700]
[700 - 800]
[800 - 900]
[900 - 1000]
[1000 - 1100]
[1100 - 1200]
[1200 - 1300]
[1300 - 1400]
[1400 - 1500]
[1500 - 1600]
[1600 - 1700]
[1700 - 1800]
[1800 - 1900]
[1900 - 2000]
[2000 - 2100]
[2100 - 2200]
[2200 - 2300]
[2300 - 2400]
[2400 - 2500]
[2500 - 2600]
[2600 - 2700]
[2700 - 2800]
[2800 - 2900]
[2900 - 3000]
[3000 - 3100]
[3100 - 3200]
[3200 - 3300]
[3300 - 3400]
[3400 - 3500]
[3500 - 3600]
[3600 - 3700]
[3700 - 3800]
[3800 - 3900]
[3900 - 4000]
[4000 - 4100]
[4100 - 4200]
[4200 - 4300]
[4300 - 4400]
[4400 - 4454]
"LBORNRHI":4454 items
[0 - 100]
[100 - 200]
[200 - 300]
[300 - 400]
[400 - 500]
[500 - 600]
[600 - 700]
[700 - 800]
[800 - 900]
[900 - 1000]
[1000 - 1100]
[1100 - 1200]
[1200 - 1300]
[1300 - 1400]
[1400 - 1500]
[1500 - 1600]
[1600 - 1700]
[1700 - 1800]
[1800 - 1900]
[1900 - 2000]
[2000 - 2100]
[2100 - 2200]
[2200 - 2300]
[2300 - 2400]
[2400 - 2500]
[2500 - 2600]
[2600 - 2700]
[2700 - 2800]
[2800 - 2900]
[2900 - 3000]
[3000 - 3100]
[3100 - 3200]
[3200 - 3300]
[3300 - 3400]
[3400 - 3500]
[3500 - 3600]
[3600 - 3700]
[3700 - 3800]
[3800 - 3900]
[3900 - 4000]
[4000 - 4100]
[4100 - 4200]
[4200 - 4300]
[4300 - 4400]
[4400 - 4454]
"LBSPEC2":4454 items
[0 - 100]
[100 - 200]
[200 - 300]
[300 - 400]
[400 - 500]
[500 - 600]
[600 - 700]
[700 - 800]
[800 - 900]
[900 - 1000]
[1000 - 1100]
[1100 - 1200]
[1200 - 1300]
[1300 - 1400]
[1400 - 1500]
[1500 - 1600]
[1600 - 1700]
[1700 - 1800]
[1800 - 1900]
[1900 - 2000]
[2000 - 2100]
[2100 - 2200]
[2200 - 2300]
[2300 - 2400]
[2400 - 2500]
[2500 - 2600]
[2600 - 2700]
[2700 - 2800]
[2800 - 2900]
[2900 - 3000]
[3000 - 3100]
[3100 - 3200]
[3200 - 3300]
[3300 - 3400]
[3400 - 3500]
[3500 - 3600]
[3600 - 3700]
[3700 - 3800]
[3800 - 3900]
[3900 - 4000]
[4000 - 4100]
[4100 - 4200]
[4200 - 4300]
[4300 - 4400]
[4400 - 4454]
"LBSTRESC":4454 items
[0 - 100]
[100 - 200]
[200 - 300]
[300 - 400]
[400 - 500]
[500 - 600]
[600 - 700]
[700 - 800]
[800 - 900]
[900 - 1000]
[1000 - 1100]
[1100 - 1200]
[1200 - 1300]
[1300 - 1400]
[1400 - 1500]
[1500 - 1600]
[1600 - 1700]
[1700 - 1800]
[1800 - 1900]
[1900 - 2000]
[2000 - 2100]
[2100 - 2200]
[2200 - 2300]
[2300 - 2400]
[2400 - 2500]
[2500 - 2600]
[2600 - 2700]
[2700 - 2800]
[2800 - 2900]
[2900 - 3000]
[3000 - 3100]
[3100 - 3200]
[3200 - 3300]
[3300 - 3400]
[3400 - 3500]
[3500 - 3600]
[3600 - 3700]
[3700 - 3800]
[3800 - 3900]
[3900 - 4000]
[4000 - 4100]
[4100 - 4200]
[4200 - 4300]
[4300 - 4400]
[4400 - 4454]
"LBSTRESN":4454 items
[0 - 100]
[100 - 200]
[200 - 300]
[300 - 400]
[400 - 500]
[500 - 600]
[600 - 700]
[700 - 800]
[800 - 900]
[900 - 1000]
[1000 - 1100]
[1100 - 1200]
[1200 - 1300]
[1300 - 1400]
[1400 - 1500]
[1500 - 1600]
[1600 - 1700]
[1700 - 1800]
[1800 - 1900]
[1900 - 2000]
[2000 - 2100]
[2100 - 2200]
[2200 - 2300]
[2300 - 2400]
[2400 - 2500]
[2500 - 2600]
[2600 - 2700]
[2700 - 2800]
[2800 - 2900]
[2900 - 3000]
[3000 - 3100]
[3100 - 3200]
[3200 - 3300]
[3300 - 3400]
[3400 - 3500]
[3500 - 3600]
[3600 - 3700]
[3700 - 3800]
[3800 - 3900]
[3900 - 4000]
[4000 - 4100]
[4100 - 4200]
[4200 - 4300]
[4300 - 4400]
[4400 - 4454]
"LBSTRESU":4454 items
[0 - 100]
[100 - 200]
[200 - 300]
[300 - 400]
[400 - 500]
[500 - 600]
[600 - 700]
[700 - 800]
[800 - 900]
[900 - 1000]
[1000 - 1100]
[1100 - 1200]
[1200 - 1300]
[1300 - 1400]
[1400 - 1500]
[1500 - 1600]
[1600 - 1700]
[1700 - 1800]
[1800 - 1900]
[1900 - 2000]
[2000 - 2100]
[2100 - 2200]
[2200 - 2300]
[2300 - 2400]
[2400 - 2500]
[2500 - 2600]
[2600 - 2700]
[2700 - 2800]
[2800 - 2900]
[2900 - 3000]
[3000 - 3100]
[3100 - 3200]
[3200 - 3300]
[3300 - 3400]
[3400 - 3500]
[3500 - 3600]
[3600 - 3700]
[3700 - 3800]
[3800 - 3900]
[3900 - 4000]
[4000 - 4100]
[4100 - 4200]
[4200 - 4300]
[4300 - 4400]
[4400 - 4454]
"LBSTNRLO":4454 items
[0 - 100]
[100 - 200]
[200 - 300]
[300 - 400]
[400 - 500]
[500 - 600]
[600 - 700]
[700 - 800]
[800 - 900]
[900 - 1000]
[1000 - 1100]
[1100 - 1200]
[1200 - 1300]
[1300 - 1400]
[1400 - 1500]
[1500 - 1600]
[1600 - 1700]
[1700 - 1800]
[1800 - 1900]
[1900 - 2000]
[2000 - 2100]
[2100 - 2200]
[2200 - 2300]
[2300 - 2400]
[2400 - 2500]
[2500 - 2600]
[2600 - 2700]
[2700 - 2800]
[2800 - 2900]
[2900 - 3000]
[3000 - 3100]
[3100 - 3200]
[3200 - 3300]
[3300 - 3400]
[3400 - 3500]
[3500 - 3600]
[3600 - 3700]
[3700 - 3800]
[3800 - 3900]
[3900 - 4000]
[4000 - 4100]
[4100 - 4200]
[4200 - 4300]
[4300 - 4400]
[4400 - 4454]
"LBSTNRHI":4454 items
[0 - 100]
[100 - 200]
[200 - 300]
[300 - 400]
[400 - 500]
[500 - 600]
[600 - 700]
[700 - 800]
[800 - 900]
[900 - 1000]
[1000 - 1100]
[1100 - 1200]
[1200 - 1300]
[1300 - 1400]
[1400 - 1500]
[1500 - 1600]
[1600 - 1700]
[1700 - 1800]
[1800 - 1900]
[1900 - 2000]
[2000 - 2100]
[2100 - 2200]
[2200 - 2300]
[2300 - 2400]
[2400 - 2500]
[2500 - 2600]
[2600 - 2700]
[2700 - 2800]
[2800 - 2900]
[2900 - 3000]
[3000 - 3100]
[3100 - 3200]
[3200 - 3300]
[3300 - 3400]
[3400 - 3500]
[3500 - 3600]
[3600 - 3700]
[3700 - 3800]
[3800 - 3900]
[3900 - 4000]
[4000 - 4100]
[4100 - 4200]
[4200 - 4300]
[4300 - 4400]
[4400 - 4454]
"LBNRIND":4454 items
[0 - 100]
[100 - 200]
[200 - 300]
[300 - 400]
[400 - 500]
[500 - 600]
[600 - 700]
[700 - 800]
[800 - 900]
[900 - 1000]
[1000 - 1100]
[1100 - 1200]
[1200 - 1300]
[1300 - 1400]
[1400 - 1500]
[1500 - 1600]
[1600 - 1700]
[1700 - 1800]
[1800 - 1900]
[1900 - 2000]
[2000 - 2100]
[2100 - 2200]
[2200 - 2300]
[2300 - 2400]
[2400 - 2500]
[2500 - 2600]
[2600 - 2700]
[2700 - 2800]
[2800 - 2900]
[2900 - 3000]
[3000 - 3100]
[3100 - 3200]
[3200 - 3300]
[3300 - 3400]
[3400 - 3500]
[3500 - 3600]
[3600 - 3700]
[3700 - 3800]
[3800 - 3900]
[3900 - 4000]
[4000 - 4100]
[4100 - 4200]
[4200 - 4300]
[4300 - 4400]
[4400 - 4454]
"LBLOINC":4454 items
[0 - 100]
[100 - 200]
[200 - 300]
[300 - 400]
[400 - 500]
[500 - 600]
[600 - 700]
[700 - 800]
[800 - 900]
[900 - 1000]
[1000 - 1100]
[1100 - 1200]
[1200 - 1300]
[1300 - 1400]
[1400 - 1500]
[1500 - 1600]
[1600 - 1700]
[1700 - 1800]
[1800 - 1900]
[1900 - 2000]
[2000 - 2100]
[2100 - 2200]
[2200 - 2300]
[2300 - 2400]
[2400 - 2500]
[2500 - 2600]
[2600 - 2700]
[2700 - 2800]
[2800 - 2900]
[2900 - 3000]
[3000 - 3100]
[3100 - 3200]
[3200 - 3300]
[3300 - 3400]
[3400 - 3500]
[3500 - 3600]
[3600 - 3700]
[3700 - 3800]
[3800 - 3900]
[3900 - 4000]
[4000 - 4100]
[4100 - 4200]
[4200 - 4300]
[4300 - 4400]
[4400 - 4454]
"LBSPEC":4454 items
[0 - 100]
[100 - 200]
[200 - 300]
[300 - 400]
[400 - 500]
[500 - 600]
[600 - 700]
[700 - 800]
[800 - 900]
[900 - 1000]
[1000 - 1100]
[1100 - 1200]
[1200 - 1300]
[1300 - 1400]
[1400 - 1500]
[1500 - 1600]
[1600 - 1700]
[1700 - 1800]
[1800 - 1900]
[1900 - 2000]
[2000 - 2100]
[2100 - 2200]
[2200 - 2300]
[2300 - 2400]
[2400 - 2500]
[2500 - 2600]
[2600 - 2700]
[2700 - 2800]
[2800 - 2900]
[2900 - 3000]
[3000 - 3100]
[3100 - 3200]
[3200 - 3300]
[3300 - 3400]
[3400 - 3500]
[3500 - 3600]
[3600 - 3700]
[3700 - 3800]
[3800 - 3900]
[3900 - 4000]
[4000 - 4100]
[4100 - 4200]
[4200 - 4300]
[4300 - 4400]
[4400 - 4454]
"LBDRVFL":4454 items
[0 - 100]
[100 - 200]
[200 - 300]
[300 - 400]
[400 - 500]
[500 - 600]
[600 - 700]
[700 - 800]
[800 - 900]
[900 - 1000]
[1000 - 1100]
[1100 - 1200]
[1200 - 1300]
[1300 - 1400]
[1400 - 1500]
[1500 - 1600]
[1600 - 1700]
[1700 - 1800]
[1800 - 1900]
[1900 - 2000]
[2000 - 2100]
[2100 - 2200]
[2200 - 2300]
[2300 - 2400]
[2400 - 2500]
[2500 - 2600]
[2600 - 2700]
[2700 - 2800]
[2800 - 2900]
[2900 - 3000]
[3000 - 3100]
[3100 - 3200]
[3200 - 3300]
[3300 - 3400]
[3400 - 3500]
[3500 - 3600]
[3600 - 3700]
[3700 - 3800]
[3800 - 3900]
[3900 - 4000]
[4000 - 4100]
[4100 - 4200]
[4200 - 4300]
[4300 - 4400]
[4400 - 4454]
"LBBLFL":4454 items
[0 - 100]
[100 - 200]
[200 - 300]
[300 - 400]
[400 - 500]
[500 - 600]
[600 - 700]
[700 - 800]
[800 - 900]
[900 - 1000]
[1000 - 1100]
[1100 - 1200]
[1200 - 1300]
[1300 - 1400]
[1400 - 1500]
[1500 - 1600]
[1600 - 1700]
[1700 - 1800]
[1800 - 1900]
[1900 - 2000]
[2000 - 2100]
[2100 - 2200]
[2200 - 2300]
[2300 - 2400]
[2400 - 2500]
[2500 - 2600]
[2600 - 2700]
[2700 - 2800]
[2800 - 2900]
[2900 - 3000]
[3000 - 3100]
[3100 - 3200]
[3200 - 3300]
[3300 - 3400]
[3400 - 3500]
[3500 - 3600]
[3600 - 3700]
[3700 - 3800]
[3800 - 3900]
[3900 - 4000]
[4000 - 4100]
[4100 - 4200]
[4200 - 4300]
[4300 - 4400]
[4400 - 4454]
"EPOCH":4454 items
[0 - 100]
[100 - 200]
[200 - 300]
[300 - 400]
[400 - 500]
[500 - 600]
[600 - 700]
[700 - 800]
[800 - 900]
[900 - 1000]
[1000 - 1100]
[1100 - 1200]
[1200 - 1300]
[1300 - 1400]
[1400 - 1500]
[1500 - 1600]
[1600 - 1700]
[1700 - 1800]
[1800 - 1900]
[1900 - 2000]
[2000 - 2100]
[2100 - 2200]
[2200 - 2300]
[2300 - 2400]
[2400 - 2500]
[2500 - 2600]
[2600 - 2700]
[2700 - 2800]
[2800 - 2900]
[2900 - 3000]
[3000 - 3100]
[3100 - 3200]
[3200 - 3300]
[3300 - 3400]
[3400 - 3500]
[3500 - 3600]
[3600 - 3700]
[3700 - 3800]
[3800 - 3900]
[3900 - 4000]
[4000 - 4100]
[4100 - 4200]
[4200 - 4300]
[4300 - 4400]
[4400 - 4454]
"VISITNUM":4454 items
[0 - 100]
[100 - 200]
[200 - 300]
[300 - 400]
[400 - 500]
[500 - 600]
[600 - 700]
[700 - 800]
[800 - 900]
[900 - 1000]
[1000 - 1100]
[1100 - 1200]
[1200 - 1300]
[1300 - 1400]
[1400 - 1500]
[1500 - 1600]
[1600 - 1700]
[1700 - 1800]
[1800 - 1900]
[1900 - 2000]
[2000 - 2100]
[2100 - 2200]
[2200 - 2300]
[2300 - 2400]
[2400 - 2500]
[2500 - 2600]
[2600 - 2700]
[2700 - 2800]
[2800 - 2900]
[2900 - 3000]
[3000 - 3100]
[3100 - 3200]
[3200 - 3300]
[3300 - 3400]
[3400 - 3500]
[3500 - 3600]
[3600 - 3700]
[3700 - 3800]
[3800 - 3900]
[3900 - 4000]
[4000 - 4100]
[4100 - 4200]
[4200 - 4300]
[4300 - 4400]
[4400 - 4454]
"VISIT":4454 items
[0 - 100]
[100 - 200]
[200 - 300]
[300 - 400]
[400 - 500]
[500 - 600]
[600 - 700]
[700 - 800]
[800 - 900]
[900 - 1000]
[1000 - 1100]
[1100 - 1200]
[1200 - 1300]
[1300 - 1400]
[1400 - 1500]
[1500 - 1600]
[1600 - 1700]
[1700 - 1800]
[1800 - 1900]
[1900 - 2000]
[2000 - 2100]
[2100 - 2200]
[2200 - 2300]
[2300 - 2400]
[2400 - 2500]
[2500 - 2600]
[2600 - 2700]
[2700 - 2800]
[2800 - 2900]
[2900 - 3000]
[3000 - 3100]
[3100 - 3200]
[3200 - 3300]
[3300 - 3400]
[3400 - 3500]
[3500 - 3600]
[3600 - 3700]
[3700 - 3800]
[3800 - 3900]
[3900 - 4000]
[4000 - 4100]
[4100 - 4200]
[4200 - 4300]
[4300 - 4400]
[4400 - 4454]
"LBDTC":4454 items
[0 - 100]
[100 - 200]
[200 - 300]
[300 - 400]
[400 - 500]
[500 - 600]
[600 - 700]
[700 - 800]
[800 - 900]
[900 - 1000]
[1000 - 1100]
[1100 - 1200]
[1200 - 1300]
[1300 - 1400]
[1400 - 1500]
[1500 - 1600]
[1600 - 1700]
[1700 - 1800]
[1800 - 1900]
[1900 - 2000]
[2000 - 2100]
[2100 - 2200]
[2200 - 2300]
[2300 - 2400]
[2400 - 2500]
[2500 - 2600]
[2600 - 2700]
[2700 - 2800]
[2800 - 2900]
[2900 - 3000]
[3000 - 3100]
[3100 - 3200]
[3200 - 3300]
[3300 - 3400]
[3400 - 3500]
[3500 - 3600]
[3600 - 3700]
[3700 - 3800]
[3800 - 3900]
[3900 - 4000]
[4000 - 4100]
[4100 - 4200]
[4200 - 4300]
[4300 - 4400]
[4400 - 4454]
"LBDY":4454 items
[0 - 100]
[100 - 200]
[200 - 300]
[300 - 400]
[400 - 500]
[500 - 600]
[600 - 700]
[700 - 800]
[800 - 900]
[900 - 1000]
[1000 - 1100]
[1100 - 1200]
[1200 - 1300]
[1300 - 1400]
[1400 - 1500]
[1500 - 1600]
[1600 - 1700]
[1700 - 1800]
[1800 - 1900]
[1900 - 2000]
[2000 - 2100]
[2100 - 2200]
[2200 - 2300]
[2300 - 2400]
[2400 - 2500]
[2500 - 2600]
[2600 - 2700]
[2700 - 2800]
[2800 - 2900]
[2900 - 3000]
[3000 - 3100]
[3100 - 3200]
[3200 - 3300]
[3300 - 3400]
[3400 - 3500]
[3500 - 3600]
[3600 - 3700]
[3700 - 3800]
[3800 - 3900]
[3900 - 4000]
[4000 - 4100]
[4100 - 4200]
[4200 - 4300]
[4300 - 4400]
[4400 - 4454]
}
}
]
"standard":{2 items
"product":"sendig"
"version":"3-1"
}
"codelists":[]0 items
}