{
    "rule": {
        "Authorities": [
            {
                "Organization": "FDA",
                "Standards": [
                    {
                        "Name": "SDTMIG",
                        "References": [
                            {
                                "Citations": [
                                    {
                                        "Document": "FDA",
                                        "Section": "FDAB039",
                                        "Cited_Guidance": "Upper limit of reference range should be greater than lower limit, whenever both are submitted."
                                    }
                                ],
                                "Origin": "FDA Business Rules",
                                "Version": "1.5",
                                "Rule_Identifier": {
                                    "Id": "FB3902",
                                    "Version": "1"
                                }
                            }
                        ],
                        "Version": "3.2"
                    },
                    {
                        "Name": "SDTMIG",
                        "References": [
                            {
                                "Citations": [
                                    {
                                        "Document": "FDA",
                                        "Section": "FDAB039",
                                        "Cited_Guidance": "Upper limit of reference range should be greater than lower limit, whenever both are submitted."
                                    }
                                ],
                                "Origin": "FDA Business Rules",
                                "Version": "1.5",
                                "Rule_Identifier": {
                                    "Id": "FB3902",
                                    "Version": "1"
                                }
                            }
                        ],
                        "Version": "3.3"
                    },
                    {
                        "Name": "SDTMIG",
                        "References": [
                            {
                                "Citations": [
                                    {
                                        "Document": "FDA",
                                        "Section": "FDAB039",
                                        "Cited_Guidance": "Upper limit of reference range should be greater than lower limit, whenever both are submitted."
                                    }
                                ],
                                "Origin": "FDA Business Rules",
                                "Version": "1.5",
                                "Rule_Identifier": {
                                    "Id": "FB3902",
                                    "Version": "1"
                                }
                            }
                        ],
                        "Version": "3.4"
                    },
                    {
                        "Name": "SENDIG",
                        "References": [
                            {
                                "Citations": [
                                    {
                                        "Document": "FDA",
                                        "Section": "FDAB039",
                                        "Cited_Guidance": "Upper limit of reference range should be greater than lower limit, whenever both are submitted."
                                    }
                                ],
                                "Origin": "FDA Business Rules",
                                "Version": "1.5",
                                "Rule_Identifier": {
                                    "Id": "FB3902",
                                    "Version": "1"
                                }
                            }
                        ],
                        "Version": "3.0"
                    },
                    {
                        "Name": "SENDIG",
                        "References": [
                            {
                                "Citations": [
                                    {
                                        "Document": "FDA",
                                        "Section": "FDAB039",
                                        "Cited_Guidance": "Upper limit of reference range should be greater than lower limit, whenever both are submitted."
                                    }
                                ],
                                "Origin": "FDA Business Rules",
                                "Version": "1.5",
                                "Rule_Identifier": {
                                    "Id": "FB3902",
                                    "Version": "1"
                                }
                            }
                        ],
                        "Version": "3.1"
                    },
                    {
                        "Name": "SENDIG",
                        "References": [
                            {
                                "Citations": [
                                    {
                                        "Document": "FDA",
                                        "Section": "FDAB039",
                                        "Cited_Guidance": "Upper limit of reference range should be greater than lower limit, whenever both are submitted."
                                    }
                                ],
                                "Origin": "FDA Business Rules",
                                "Version": "1.5",
                                "Rule_Identifier": {
                                    "Id": "FB3902",
                                    "Version": "1"
                                }
                            }
                        ],
                        "Version": "3.1.1"
                    },
                    {
                        "Name": "SENDIG-DART",
                        "References": [
                            {
                                "Citations": [
                                    {
                                        "Document": "FDA",
                                        "Section": "FDAB039",
                                        "Cited_Guidance": "Upper limit of reference range should be greater than lower limit, whenever both are submitted."
                                    }
                                ],
                                "Origin": "FDA Business Rules",
                                "Version": "1.5",
                                "Rule_Identifier": {
                                    "Id": "FB3902",
                                    "Version": "1"
                                }
                            }
                        ],
                        "Version": "1.1"
                    },
                    {
                        "Name": "SENDIG-DART",
                        "References": [
                            {
                                "Citations": [
                                    {
                                        "Document": "FDA",
                                        "Section": "FDAB039",
                                        "Cited_Guidance": "Upper limit of reference range should be greater than lower limit, whenever both are submitted."
                                    }
                                ],
                                "Origin": "FDA Business Rules",
                                "Version": "1.5",
                                "Rule_Identifier": {
                                    "Id": "FB3902",
                                    "Version": "1"
                                }
                            }
                        ],
                        "Version": "1.2"
                    },
                    {
                        "Name": "SENDIG-GENETOX",
                        "References": [
                            {
                                "Citations": [
                                    {
                                        "Document": "FDA",
                                        "Section": "FDAB039",
                                        "Cited_Guidance": "Upper limit of reference range should be greater than lower limit, whenever both are submitted."
                                    }
                                ],
                                "Origin": "FDA Business Rules",
                                "Version": "1.5",
                                "Rule_Identifier": {
                                    "Id": "FB3902",
                                    "Version": "1"
                                }
                            }
                        ],
                        "Version": "1.0"
                    },
                    {
                        "Name": "SENDIG-AR",
                        "References": [
                            {
                                "Citations": [
                                    {
                                        "Document": "FDA",
                                        "Section": "FDAB039",
                                        "Cited_Guidance": "Upper limit of reference range should be greater than lower limit, whenever both are submitted."
                                    }
                                ],
                                "Origin": "FDA Business Rules",
                                "Version": "1.5",
                                "Rule_Identifier": {
                                    "Id": "FB3902",
                                    "Version": "1"
                                }
                            }
                        ],
                        "Version": "1.0"
                    }
                ]
            }
        ],
        "Check": {
            "all": [
                {
                    "name": "--ORNRLO",
                    "operator": "non_empty"
                },
                {
                    "name": "--ORNRLO",
                    "operator": "matches_regex",
                    "value": "^-?(0|[1-9]\\d*)(\\.\\d+)?$"
                },
                {
                    "name": "--ORNRHI",
                    "operator": "non_empty"
                },
                {
                    "name": "--ORNRHI",
                    "operator": "matches_regex",
                    "value": "^-?(0|[1-9]\\d*)(\\.\\d+)?$"
                },
                {
                    "name": "--ORNRHI",
                    "operator": "less_than_or_equal_to",
                    "value": "--ORNRLO"
                }
            ]
        },
        "Core": {
            "Status": "Draft",
            "Version": "1"
        },
        "Description": "--ORNRHI should be higher than --ORNRLO when both values are completed.",
        "Executability": "Partially Executable - Possible Underreporting",
        "Outcome": {
            "Message": "The upper limit of the reference range (--ORNRHI) is lower than or equal to the lower limit of the reference range (--ORNRLO).",
            "Output_Variables": [
                "--TESTCD",
                "--ORNRHI",
                "--ORNRLO"
            ]
        },
        "Scope": {
            "Classes": {
                "Include": [
                    "FINDINGS"
                ]
            },
            "Domains": {
                "Include": [
                    "ALL"
                ]
            }
        },
        "Sensitivity": "Record",
        "Rule_Type": "Record Data"
    },
    "datasets": [
        {
            "filename": "lb.xpt",
            "label": "Laboratory Test Results",
            "domain": "LB",
            "variables": [
                {
                    "name": "STUDYID",
                    "label": "Study Identifier",
                    "type": "Char",
                    "length": 50
                },
                {
                    "name": "DOMAIN",
                    "label": "Domain Abbreviation",
                    "type": "Char",
                    "length": 50
                },
                {
                    "name": "USUBJID",
                    "label": "Unique Subject Identifier",
                    "type": "Char",
                    "length": 50
                },
                {
                    "name": "LBSEQ",
                    "label": "Sequence Number",
                    "type": "Num",
                    "length": 8
                },
                {
                    "name": "LBTESTCD",
                    "label": "Lab Test or Examination Short Name",
                    "type": "Char",
                    "length": 50
                },
                {
                    "name": "LBTEST",
                    "label": "Lab Test or Examination Name",
                    "type": "Char",
                    "length": 50
                },
                {
                    "name": "LBORRES",
                    "label": "Result or Finding in Original Units",
                    "type": "Char",
                    "length": 50
                },
                {
                    "name": "LBORRESU",
                    "label": "Original Units",
                    "type": "Char",
                    "length": 50
                },
                {
                    "name": "LBSTRESC",
                    "label": "Character Result/Finding in Std Format",
                    "type": "Char",
                    "length": 50
                },
                {
                    "name": "LBSTRESN",
                    "label": "Numeric Result/Finding in Standard Units",
                    "type": "Num",
                    "length": 8
                },
                {
                    "name": "LBSTRESU",
                    "label": "Standard Units",
                    "type": "Char",
                    "length": 50
                },
                {
                    "name": "LBORNRLO",
                    "label": "Reference Range\r\nLower Limit in Orig\r\nUnit",
                    "type": "Char",
                    "length": 50
                },
                {
                    "name": "LBORNRHI",
                    "label": "Reference Range\r\nUpper Limit in Orig\r\nUnit",
                    "type": "Char",
                    "length": 50
                }
            ],
            "records": {
                "STUDYID": [
                    "123101",
                    "123101",
                    "123101",
                    "123101",
                    "123101",
                    "123101",
                    "123102"
                ],
                "DOMAIN": [
                    "LB",
                    "LB",
                    "LB",
                    "LB",
                    "LB",
                    "LB",
                    "LB"
                ],
                "USUBJID": [
                    "001",
                    "001",
                    "002",
                    "002",
                    "003",
                    "003",
                    "003"
                ],
                "LBSEQ": [
                    1,
                    2,
                    1,
                    2,
                    1,
                    2,
                    2
                ],
                "LBTESTCD": [
                    "ALB",
                    "ALP",
                    "ALB",
                    "ALP",
                    "ALB",
                    "ALP",
                    "ALP"
                ],
                "LBTEST": [
                    "Albumin",
                    "Alkaline Phosphatase",
                    "Albumin",
                    "Alkaline Phosphatase",
                    "Albumin",
                    "Alkaline Phosphatase",
                    "Alkaline Phosphatase"
                ],
                "LBORRES": [
                    "NEGATIVE",
                    "POSITIVE",
                    "NEGATIVE",
                    "POSITIVE",
                    "NEGATIVE",
                    "POSITIVE",
                    "POSITIVE"
                ],
                "LBORRESU": [
                    "g/L",
                    "IU/L",
                    "g/L",
                    "IU/L",
                    "g/L",
                    "IU/L",
                    "IU/L"
                ],
                "LBSTRESC": [
                    "3.0",
                    "398",
                    "3.0",
                    "398",
                    "3.0",
                    "398",
                    "398"
                ],
                "LBSTRESN": [
                    3,
                    398,
                    3,
                    398,
                    3,
                    398,
                    398
                ],
                "LBSTRESU": [
                    "g/L",
                    "IU/L",
                    "g/L",
                    "IU/L",
                    "g/L",
                    "IU/L",
                    "IU/L"
                ],
                "LBORNRLO": [
                    "29.89",
                    "1.6",
                    "+2",
                    "NEGATIVE",
                    "2-4",
                    "",
                    "<6"
                ],
                "LBORNRHI": [
                    "29.9",
                    "1.7",
                    "+1",
                    "POSITIVE",
                    "1-2",
                    "5",
                    ">2"
                ]
            }
        }
    ],
    "standard": {
        "product": "sdtmig",
        "version": "3-4"
    },
    "codelists": []
}