STUDYID,USUBJID,SUBJID,SITEID,AGE,AGEU,SEX,RACE,COMPLFL,FASFL,SAFFL,ITTFL,PPROTFL,ENRLFL,RANDFL,COMPLFN,FASFN,ITTFN,PPROTFN,SAFFN,RANDFN,ENRLFN,ARMCD,ARM,ACTARMCD,ACTARM,TRT01P,TRT01PN,TRT01A,TRT01AN,EOSSTT,EOTSTT,TRTEDT,TRTDURD,HTBL,WTBL,BMIBL,DTHFL,DTHDT,DTHCAUS,DTHCAUSN,P01S1,P01S1EDF,P01S1EDM,P01S1EDT,P01S1ETF,P01S1ETM,P01S1SDF,P01S1SDM,P01S1SDT,P01S1STF,P01S1STM,P01S2,P01S2EDF,P01S2EDM,P01S2EDT,P01S2ETF,P01S2ETM,P01S2SDF,P01S2SDM,P01S2SDT,P01S2STF,P01S2STM,P02S1,P02S1EDF,P02S1EDM,P02S1EDT,P02S1ETF,P02S1ETM,P02S1SDF,P02S1SDM,P02S1SDT,P02S1STF,P02S1STM,P02S2,P02S2EDF,P02S2EDM,P02S2EDT,P02S2ETF,P02S2ETM,P02S2SDF,P02S2SDM,P02S2SDT,P02S2STF,P02S2STM,REGION1,REGION1N,REGION2,REGION2N,STRAT1R,STRAT1RN,STRAT1V,STRAT1VN,STRAT2R,STRAT2RN,STRAT2V,STRAT2VN,STRATAR,STRATARN,STRATAV,STRATAVN,TRCMPG1,TRCMPG1N,TRCMPG2,TRCMPG2N,TRT02A,TRT02AN,TRT02P,TRT02PN,TRTSEQA,TRTSEQAN,TRTSEQP,TRTSEQPN,TSEQAG1,TSEQAG1N,TSEQAG2,TSEQAG2N,TSEQPG1,TSEQPG1N,TSEQPG2,TSEQPG2N,SPDEVID,DEVSDT,DEVEDT
Study Identifier,Unique Subject Identifier,Subject Identifier for the Study,Study Site Identifier,Age,Age Units,Sex,Race,Completers Population Flag,Full Analysis Set Population Flag,Safety Population Flag,Intent-To-Treat Population Flag,Per-Protocol Population Flag,Enrolled Population Flag,Randomized Population Flag,Completers Population Flag (N),Full Analysis Set Population Flag (N),Intent-To-Treat Population Flag (N),Per-Protocol Population Flag (N),Safety Population Flag (N),Randomized Population Flag (N),Enrolled Population Flag (N),Planned Arm Code,Description of Planned Arm,Actual Arm Code,Description of Actual Arm,Planned Treatment for Period 01,Planned Treatment for Period 01 (N),Actual Treatment for Period 01,Actual Treatment for Period 01 (N),End of Study Status,End of Treatment Status,Date of Last Exposure to Treatment,Total Treatment Duration (Days),Baseline Body Height (unit),Baseline Body Weight (unit),Baseline Body Mass Index (unit),Subject Death Flag,Date of Death,Cause of Death,Cause of Death (N),Description of Period 01 Subperiod 1,Period 01 Subper 1 End Date Imput Flag,Period 01 Subperiod 1 End Datetime,Period 01 Subperiod 1 End Date,Period 01 Subper 1 End Time Imput Flag,Period 01 Subperiod 1 End Time,Period 01 Subper 1 Start Date Imput Flag,Period 01 Subperiod 1 Start Datetime,Period 01 Subperiod 1 Start Date,Period 01 Subper 1 Start Time Imput Flag,Period 01 Subperiod 1 Start Time,Description of Period 01 Subperiod 2,Period 01 Subper 2 End Date Imput Flag,Period 01 Subperiod 2 End Datetime,Period 01 Subperiod 2 End Date,Period 01 Subper 2 End Time Imput Flag,Period 01 Subperiod 2 End Time,Period 01 Subper 2 Start Date Imput Flag,Period 01 Subperiod 2 Start Datetime,Period 01 Subperiod 2 Start Date,Period 01 Subper 2 Start Time Imput Flag,Period 01 Subperiod 2 Start Time,Description of Period 02 Subperiod 1,Period 02 Subper 1 End Date Imput Flag,Period 02 Subperiod 1 End Datetime,Period 02 Subperiod 1 End Date,Period 02 Subper 1 End Time Imput Flag,Period 02 Subperiod 1 End Time,Period 02 Subper 1 Start Date Imput Flag,Period 02 Subperiod 1 Start Datetime,Period 02 Subperiod 1 Start Date,Period 02 Subper 1 Start Time Imput Flag,Period 02 Subperiod 1 Start Time,Description of Period 02 Subperiod 2,Period 02 Subper 2 End Date Imput Flag,Period 02 Subperiod 2 End Datetime,Period 02 Subperiod 2 End Date,Period 02 Subper 2 End Time Imput Flag,Period 02 Subperiod 2 End Time,Period 02 Subper 2 Start Date Imput Flag,Period 02 Subperiod 2 Start Datetime,Period 02 Subperiod 2 Start Date,Period 02 Subper 2 Start Time Imput Flag,Period 02 Subperiod 2 Start Time,Geographic Region 1,Geographic Region 1 (N),Geographic Region 2,Geographic Region 2 (N),Strat Factor 1 Value Used for Rand,Strat Factor 1 Value Used for Rand (N),Strat Factor 1 Value from Verif Source,Strat Fact 1 Val from Verif Source (N),Strat Factor 2 Value Used for Rand,Strat Factor 2 Value Used for Rand (N),Strat Factor 2 Value from Verif Source,Strat Fact 2 Val from Verif Source (N),Strata Used for Randomization,Strata Used for Randomization (N),Strata from Verification Source,Strata from Verification Source (N),Treatment Compliance (%) Group 1,Treatment Compliance (%) Group 1 (N),Treatment Compliance (%) Group 2,Treatment Compliance (%) Group 2 (N),Actual Treatment for Period 02,Actual Treatment for Period 02 (N),Planned Treatment for Period 02,Planned Treatment for Period 02 (N),Actual Sequence of Treatments,Actual Sequence of Treatments (N),Planned Sequence of Treatments,Planned Sequence of Treatments (N),Actual Pooled Treatment Sequence 1,Actual Pooled Treatment Sequence 1 (N),Actual Pooled Treatment Sequence 2,Actual Pooled Treatment Sequence 2 (N),Planned Pooled Treatment Sequence 1,Planned Pooled Treatment Sequence 1 (N),Planned Pooled Treatment Sequence 2,Planned Pooled Treatment Sequence 2 (N),Sponsor Device Identifier,Date of First Exposure to Device,Date of Last Exposure to Device
Char,Char,Char,Char,Num,Char,Char,Char,Char,Char,Char,Char,Char,Char,Char,Num,Num,Num,Num,Num,Num,Num,Char,Char,Char,Char,Char,Num,Char,Num,Char,Char,Num,Num,Num,Num,Num,Char,Num,Char,Num,Char,Char,Num,Num,Char,Num,Char,Num,Num,Char,Num,Char,Char,Num,Num,Char,Num,Char,Num,Num,Char,Num,Char,Char,Num,Num,Char,Num,Char,Num,Num,Char,Num,Char,Char,Num,Num,Char,Num,Char,Num,Num,Char,Num,Char,Num,Char,Num,Char,Num,Char,Num,Char,Num,Char,Num,Char,Num,Char,Num,Char,Num,Char,Num,Char,Num,Char,Num,Char,Num,Char,Num,Char,Num,Char,Num,Char,Num,Char,Num,Char,Num,Num
8,17,8,2,8,5,1,50,1,1,1,1,1,1,1,8,8,8,8,8,8,8,8,12,8,12,12,8,12,8,12,12,8,8,16,16,16,1,12,16,8,8,1,8,8,1,8,1,8,8,1,8,8,1,8,8,1,8,1,8,8,1,8,8,1,8,8,1,8,1,8,8,1,8,8,1,8,8,1,8,1,8,8,1,8,16,8,16,8,16,8,16,8,16,8,16,8,16,8,16,8,16,8,16,8,8,8,8,8,16,8,16,8,16,8,16,8,16,8,16,8,20,8,8
STUDY001,STUDY001-SUBJ0001,SUBJ0001,13,77,YEARS,F,BLACK OR AFRICAN AMERICAN,Y,Y,Y,Y,Y,Y,Y,1,1,1,1,1,1,1,"2,00 ARM",Treatment 2,"2,00 ARM",Treatment 2,Treatment 2,2,Treatment 2,2,COMPLETED,COMPLETED,24307,143,153.7,99.6,18.4,N,,DTHCAUSA,1001,P01S1A,Y,1001,24100,Y,1001,Y,1001,24100,Y,1001,P01S2A,Y,1001,24100,Y,1001,Y,1001,24100,Y,1001,P02S1A,Y,1001,24100,Y,1001,Y,1001,24100,Y,1001,P02S2A,Y,1001,24100,Y,1001,Y,1001,24100,Y,1001,REGION1A,1001,REGION2A,1001,STRAT1RA,1001,STRAT1VA,1001,STRAT2RA,1001,STRAT2VA,1001,STRATARA,1001,STRATAVA,1001,TRCMPG1A,1001,TRCMPG2A,1001,TRT02AA,1001,TRT02PA,1001,TRTSEQAA,1001,TRTSEQPA,1001,TSEQAG1A,1001,TSEQAG2A,1001,TSEQPG1A,1001,TSEQPG2A,1001,DEV001,24307,24400
STUDY001,STUDY001-SUBJ0002,SUBJ0002,43,30,YEARS,F,AMERICAN INDIAN OR ALASKA NATIVE,Y,Y,Y,Y,Y,Y,Y,1,1,1,1,1,1,1,"2,00 ARM",Treatment 2,"2,00 ARM",Treatment 2,Treatment 2,2,Treatment 2,2,COMPLETED,COMPLETED,24299,95,187.6,114.9,26.6,N,,DTHCAUSB,1002,P01S1B,N,1002,24101,N,1002,N,1002,24101,N,1002,P01S2B,N,1002,24101,N,1002,N,1002,24101,N,1002,P02S1B,N,1002,24101,N,1002,N,1002,24101,N,1002,P02S2B,N,1002,24101,N,1002,N,1002,24101,N,1002,REGION1B,1002,REGION2B,1002,STRAT1RB,1002,STRAT1VB,1002,STRAT2RB,1002,STRAT2VB,1002,STRATARB,1002,STRATAVB,1002,TRCMPG1B,1002,TRCMPG2B,1002,TRT02AB,1002,TRT02PB,1002,TRTSEQAB,1002,TRTSEQPB,1002,TSEQAG1B,1002,TSEQAG2B,1002,TSEQPG1B,1002,TSEQPG2B,1002,DEV001,24307,24400
STUDY001,STUDY001-SUBJ0003,SUBJ0003,12,28,YEARS,F,ASIAN,Y,Y,Y,Y,Y,Y,Y,1,1,1,1,1,1,1,"3,00 ARM",Treatment 3,"3,00 ARM",Treatment 3,Treatment 3,3,Treatment 3,3,COMPLETED,COMPLETED,24298,197,195.3,119.1,20.7,N,,DTHCAUSC,1003,P01S1C,Y,1003,24102,Y,1003,Y,1003,24102,Y,1003,P01S2C,Y,1003,24102,Y,1003,Y,1003,24102,Y,1003,P02S1C,Y,1003,24102,Y,1003,Y,1003,24102,Y,1003,P02S2C,Y,1003,24102,Y,1003,Y,1003,24102,Y,1003,REGION1C,1003,REGION2C,1003,STRAT1RC,1003,STRAT1VC,1003,STRAT2RC,1003,STRAT2VC,1003,STRATARC,1003,STRATAVC,1003,TRCMPG1C,1003,TRCMPG2C,1003,TRT02AC,1003,TRT02PC,1003,TRTSEQAC,1003,TRTSEQPC,1003,TSEQAG1C,1003,TSEQAG2C,1003,TSEQPG1C,1003,TSEQPG2C,1003,DEV001,24307,24400
STUDY001,STUDY001-SUBJ0004,SUBJ0004,18,69,YEARS,M,BLACK OR AFRICAN AMERICAN,Y,Y,Y,Y,Y,Y,Y,1,1,1,1,1,1,1,"2,00 ARM",Treatment 2,"2,00 ARM",Treatment 2,Treatment 2,2,Treatment 2,2,COMPLETED,COMPLETED,24299,83,172.8,85.6,23.9,N,,DEV001,24307,24400
STUDY001,STUDY001-SUBJ0005,SUBJ0005,17,30,YEARS,M,OTHER,Y,Y,Y,Y,Y,Y,Y,1,1,1,1,1,1,1,"1,00 ARM",Treatment 1,"1,00 ARM",Treatment 1,Treatment 1,1,Treatment 1,1,COMPLETED,COMPLETED,24398,167,163.0,72.5,32.2,N,,DEV001,24307,24400
