STUDYID,STUDYIDN,USUBJID,USUBJIDN,SUBJID,SUBJIDN,AFRLT,EVID,DV,MDV,AMT,SEX,SEXN,RACE,RACEN,PARAM,PARAMCD,AVAL,AVALC,PROJID,PROJIDN,SITEID,SITEIDN,COUNTRY,COUNTRYL,COUNTRYN,COHORT,COHORTC,SUBJTYP,SUBJTYPC,BLQFL,BLQFN,ALQFL,ALQFN,FORM,FORMN,ROUTE,ROUTEN,ACYCLE,ACYCLEC,FLGREAS,FLGREASC,REGION1,REGION1N,REGION2,REGION2N,DVID,DVIDN,ARELTM,ARELTMU,ATOXGR,ATOXGRN,BTOXGR,BTOXGRN,ANRIND,BNRIND,ATOXGRL,ATOXGRLN,ATOXGRH,ATOXGRHN,BTOXGRL,BTOXGRLN,BTOXGRH,BTOXGRHN,ABLFL,ABLFN,TRTP,TRT01P,TRT02P,A1HI,A2HI,ANL01FL,ANL01FN,ANL02FL,ANL02FN,APERIOD,APERIODC,APHASE,APHASEN,ASPER,ASPERC,ATPT,ATPTN,AVALCA1N,AVALCA2N,AVALCAT1,AVALCAT2,AVISIT,AVISITN,BASECA1N,BASECA2N,BASECAT1,BASECAT2,BCHGCA1N,BCHGCA2N,PBCHGCA1,PBCHGCA2,BCHGCAT1,CHGCAT1N,BCHGCAT2,CHGCAT2N,CHGCAT1,CHGCAT2,CRIT1,CRIT1FL,CRIT1FN,CRIT2,CRIT2FL,CRIT2FN,LVOTFL,LVOTFN,MCRIT1,MCRIT1ML,MCRIT1MN,MCRIT2,MCRIT2ML,MCRIT2MN,ONTRTFN,ONTRTFL,ONTR01FL,ONTR02FL,ONTRT1FL,ONTRT2FL,PARCAT1,PARCAT1N,PARCAT2,PARCAT2N,PBCHGC1N,PBCHGC2N,PCHGCA1N,PCHGCA2N,PCHGCAT1,PCHGCAT2,R2A1HI,R2A2HI,SHIFT1,SHIFT1N,SHIFT2,SHIFT2N,TRTA,TRT01A,TRT02A,TRTAG1,TRTAG1N,TRTAG2,TRTAG2N,TRTAN,TRT01AN,TRT02AN,TRTPG1,TRTPG1N,TRTPG2,TRTPG2N,TRTPN,TRT01PN,TRT02PN,P01S1,P02S1,P01S1SDT,P02S1SDT,P01S1SDM,P02S1SDM,P01S1STM,P02S1STM,P01S1SDF,P02S1SDF,P01S1STF,P02S1STF,P01S1EDT,P02S1EDT,P01S1EDM,P02S1EDM,P01S1ETM,P02S1ETM,P01S1EDF,P02S1EDF,P01S1ETF,P02S1ETF,DOSEA,DOSEU,AVALU
Study Identifier,Study Identifier (N),Unique Subject Identifier,Unique Subject Identifier (N),Subject Identifier for the Study,Subject Identifier for the Study (N),Act. Rel. Time from Analyte First Dose,Event ID,Dependent Variable Result,Missing Dependent Variable Result,Actual Amount of Dose Received (unit),Sex,Sex (N),Race,Race (N),Parameter,Parameter Code,Analysis Value,Analysis Value (C),Project Identifier,Project Identifier (N),Study Site Identifier,Study Site Identifier (N),Country,Country Full Name,Country (N),Subject Cohort,Cohort Subject Enrolled into (C),Subject Type,Subject Type (C),Below Lower Limit of Quant Flag,Below Lower Limit of Quant Flag (N),Above the Upper Limit of Quant Flag,Above the Upper Limit of Quant Flag (N),Drug Formulation,Drug Formulation (N),Route,Route of Administration (N),Analysis Cycle,Analysis Cycle (C),Identification of Data Issue Reason,Identification of Data Issue Reason (C),Geographic Region 1,Geographic Region 1 (N),Geographic Region 2,Geographic Region 2 (N),Dependent Variable Name,Dependent Variable Name (N),Analysis Relative Time,Analysis Relative Time Unit,Analysis Toxicity Grade,Analysis Toxicity Grade (N),Baseline Toxicity Grade,Baseline Toxicity Grade (N),Analysis Reference Range Indicator,Baseline Reference Range Indicator,Analysis Toxicity Grade Low,Analysis Toxicity Grade Low (N),Analysis Toxicity Grade High,Analysis Toxicity Grade High (N),Baseline Toxicity Grade Low,Baseline Toxicity Grade Low (N),Baseline Toxicity Grade High,Baseline Toxicity Grade High (N),Baseline Record Flag,Baseline Record Flag (N),Planned Treatment,Planned Treatment for Period 01,Planned Treatment for Period 02,Analysis Range 1 Upper Limit,Analysis Range 2 Upper Limit,Analysis Flag 01,Analysis Flag 01 (N),Analysis Flag 02,Analysis Flag 02 (N),Period,Period (C),Phase,Phase (N),Subperiod within Period,Subperiod within Period (C),Analysis Timepoint,Analysis Timepoint (N),Analysis Value Category 1 (N),Analysis Value Category 2 (N),Analysis Value Category 1,Analysis Value Category 2,Analysis Visit,Analysis Visit (N),Baseline Category 1 (N),Baseline Category 2 (N),Baseline Category 1,Baseline Category 2,Change to Baseline Category 1 (N),Change to Baseline Category 2 (N),Percent Change to Baseline Category 1,Percent Change to Baseline Category 2,Change to Baseline Category 1,Change from Baseline Category 1 (N),Change to Baseline Category 2,Change from Baseline Category 2 (N),Change from Baseline Category 1,Change from Baseline Category 2,Analysis Criterion 1,Criterion 1 Evaluation Result Flag,Criterion 1 Evaluation Result Flag (N),Analysis Criterion 2,Criterion 2 Evaluation Result Flag,Criterion 2 Evaluation Result Flag (N),Last Value On Treatment Record Flag,Last Value On Treatment Record Flag (N),Analysis Multi-Response Criterion 1,Multi-Response Criterion 1 Evaluation,Multi-Response Criterion 1 Eval (N),Analysis Multi-Response Criterion 2,Multi-Response Criterion 2 Evaluation,Multi-Response Criterion 2 Eval (N),On Treatment Record Flag (N),On Treatment Record Flag,On Treatment Period 01 Flag,On Treatment Period 02 Flag,On Treatment Record 1 Flag,On Treatment Record 2 Flag,Parameter Category 1,Parameter Category 1 (N),Parameter Category 2,Parameter Category 2 (N),Percent Change to Baseline Category 1 (N),Percent Change to Baseline Category 2 (N),Percent Chg from Baseline Category 1 (N),Percent Chg from Baseline Category 2 (N),Percent Chg from Baseline Category 1,Percent Chg from Baseline Category 2,Ratio to Analysis Range 2 Upper Limit,Ratio to Analysis Range 2 Upper Limit,Shift 1,Shift 1 (N),Shift 2,Shift 2 (N),Actual Treatment,Actual Treatment for Period 01,Actual Treatment for Period 02,Actual Pooled Treatment 1,Actual Pooled Treatment 1 (N),Actual Pooled Treatment 2,Actual Pooled Treatment 2 (N),Actual Treatment (N),Actual Treatment for Period 01 (N),Actual Treatment for Period 02 (N),Planned Pooled Treatment 1,Planned Pooled Treatment 1 (N),Planned Pooled Treatment 2,Planned Pooled Treatment 2 (N),Planned Treatment (N),Planned Treatment for Period 01 (N),Planned Treatment for Period 02 (N),Description of Period 01 Subperiod 1,Description of Period 02 Subperiod 1,Period 01 Subperiod 1 Start Date,Period 02 Subperiod 1 Start Date,Period 01 Subperiod 1 Start Datetime,Period 02 Subperiod 1 Start Datetime,Period 01 Subperiod 1 Start Time,Period 02 Subperiod 1 Start Time,Period 01 Subper 1 Start Date Imput Flag,Period 02 Subper 1 Start Date Imput Flag,Period 01 Subper 1 Start Time Imput Flag,Period 02 Subper 1 Start Time Imput Flag,Period 01 Subperiod 1 End Date,Period 02 Subperiod 1 End Date,Period 01 Subperiod 1 End Datetime,Period 02 Subperiod 1 End Datetime,Period 01 Subperiod 1 End Time,Period 02 Subperiod 1 End Time,Period 01 Subper 1 End Date Imput Flag,Period 02 Subper 1 End Date Imput Flag,Period 01 Subper 1 End Time Imput Flag,Period 02 Subper 1 End Time Imput Flag,Actual Treatment Dose,Treatment Dose Units,Analysis Value Unit
Char,Num,Char,Num,Char,Num,Num,Num,Num,Num,Num,Char,Num,Char,Num,Char,Char,Num,Char,Char,Num,Char,Num,Char,Char,Num,Char,Char,Num,Char,Char,Num,Char,Num,Char,Num,Char,Num,Num,Char,Num,Char,Char,Num,Char,Num,Char,Num,Num,Char,Char,Num,Char,Num,Char,Char,Char,Num,Char,Num,Char,Num,Char,Num,Char,Num,Char,Char,Char,Num,Num,Char,Num,Char,Num,Num,Char,Char,Num,Num,Char,Char,Num,Num,Num,Char,Char,Char,Num,Num,Num,Char,Char,Num,Num,Char,Char,Char,Num,Char,Num,Char,Char,Char,Char,Num,Char,Char,Num,Char,Num,Char,Char,Num,Char,Char,Num,Num,Char,Char,Char,Char,Char,Char,Num,Char,Num,Num,Num,Num,Num,Char,Char,Num,Num,Char,Num,Char,Num,Char,Char,Char,Char,Num,Char,Num,Num,Num,Num,Char,Num,Char,Num,Num,Num,Num,Char,Char,Char,Char,Char,Char,Char,Char,Char,Char,Char,Char,Char,Char,Char,Char,Char,Char,Char,Char,Char,Char,Num,Char,Char
8,8,17,16,8,16,16,8,8,8,8,1,1,50,16,32,8,8,8,16,8,2,8,32,64,8,8,8,8,8,1,1,1,1,8,8,12,8,8,8,8,8,32,16,32,16,4,8,16,8,16,16,16,16,16,16,16,16,16,16,16,16,16,16,1,1,16,16,16,8,8,1,1,1,1,8,16,8,8,8,8,8,8,8,8,16,16,8,8,8,8,16,16,8,8,16,16,16,8,16,8,8,8,8,1,1,8,1,1,1,1,8,16,8,8,16,8,1,1,1,1,1,1,16,8,16,8,8,8,8,8,16,16,8,8,8,8,8,8,8,8,8,8,8,8,8,8,8,8,8,8,8,8,8,8,8,32,32,32,32,32,32,32,32,32,32,32,32,32,32,32,32,32,32,32,32,32,32,8,20,20
STUDY001,10001,STUDY001-SUBJ0001,10000001,SUBJ0001,10000001,234,102442,100,404,10,F,1,BLACK OR AFRICAN AMERICAN,205432,PARACETAMOL,AY023823,0.432241,AVALUEC,PROJ-04-05574,10005574,13,1000013,Belgium,Belgium,1022,1001,AF-01001,205431,tall,N,0,N,0,serious,20543,INTRAVENOUS,1043,1002,A-001002,1654,yes,ITALY,102,ITALY,102,x,1001,15005,sec,much,1200,little,10.512,high,low,low,0.0999,higher,9.999,lower,0.00099,very high,999.99,y,1,CURE,CURE,CURE,1001,1001,Y,1,Y,1,1001,APERIODCA,APHASEA,1001,1001,ASPERCA,ATPTA,1001,1001,1001,AVALCAT1A,AVALCAT2A,AVISITA,1001,1001,1001,BASECAT1A,BASECAT2A,1001,1001,High,High,CHGCAT1A,1001,CHGCAT2A,1001,High,High,CRIT1A,Y,1,CRIT2A,Y,1,Y,1,MCRIT1A,MCRIT1MLA,1001,MCRIT2A,MCRIT2MLA,1001,1,Y,Y,Y,Y,Y,PARCAT1A,1001,PARCAT2A,1001,1001,1001,1001,1001,PCHGCAT1A,PCHGCAT2A,1001,1001,SHIFT1A,1001,SHIFT2A,1001,TRTAA,TRTAA,TRTAA,TRTAG1A,1001,TRTAG2A,1001,1001,1001,1001,TRTPG1A,1001,TRTPG2A,1001,1001,1001,1001,P01S1_A,P02S1_A,01/01/2026,01/01/2026,NONE,NONE,NONE,NONE,Y,Y,Y,Y,01/01/2026,01/01/2026,NONE,NONE,NONE,NONE,Y,Y,Y,Y,100,mg,ng/mL
STUDY001,10001,STUDY001-SUBJ0002,10000002,SUBJ0002,10000002,244,102443,100,404,10,M,0,AMERICAN INDIAN OR ALASKA NATIVE,346953,ASPIRIN,AZ023325,0.432241,AVALUEC,PROJ-04-05574,10005574,43,1000043,United Kingdom,United Kingdom of Great Britain and Northern Ireland,1201,1002,AF-01002,205431,tan,N,0,N,0,fun,20544,SUPPOSITORY,1042,1002,A-001002,1654,why,BELGIUM,21,BELGIUM,21,y,1011,15006,sec,much,1100,little,10.512,high,low,low,0.0999,higher,9.999,lower,0.00099,very high,999.99,y,1,CURE,CURE,CURE,1002,1002,N,0,N,0,1002,APERIODCB,APHASEB,1002,1002,ASPERCB,ATPTB,1002,1002,1002,AVALCAT1B,AVALCAT2B,AVISITB,1002,1002,1002,BASECAT1B,BASECAT2B,1002,1002,Medium,Medium,CHGCAT1B,1002,CHGCAT2B,1002,Medium,Medium,CRIT1B,N,0,CRIT2B,N,0,N,0,MCRIT1B,MCRIT1MLB,1002,MCRIT2B,MCRIT2MLB,1002,0,N,N,N,N,N,PARCAT1B,1002,PARCAT2B,1002,1002,1002,1002,1002,PCHGCAT1B,PCHGCAT2B,1002,1002,SHIFT1B,1002,SHIFT2B,1002,TRTAB,TRTAB,TRTAB,TRTAG1B,1002,TRTAG2B,1002,1002,1002,1002,TRTPG1B,1002,TRTPG2B,1002,1002,1002,1002,P01S1_B,P02S1_B,01/02/2026,01/02/2026,PARTIAL,PARTIAL,PARTIAL,PARTIAL,N,N,N,N,01/02/2026,01/02/2026,PARTIAL,PARTIAL,PARTIAL,PARTIAL,N,N,N,N,100,mg,ng/mL
STUDY001,10001,STUDY001-SUBJ0003,10000003,SUBJ0003,10000003,254,102444,100,404,10,F,1,ASIAN,504032,IBUPROFEN,AW209534,0.432241,AVALUEC,PROJ-04-05574,10005574,12,1000012,Italy,Italy,1101,1003,AF-01003,205431,young,N,0,N,0,strong,20545,ORAL,1032,1002,A-001002,1654,not,UNITED KINGDOM,198,UNITED KINGDOM,198,z,1111,15007,sec,much,1000,little,10.512,high,low,low,0.0999,higher,9.999,lower,0.00099,very high,999.99,y,1,CURE,CURE,CURE,1003,1003,Y,1,Y,1,1003,APERIODCC,APHASEC,1003,1003,ASPERCC,ATPTC,1003,1003,1003,AVALCAT1C,AVALCAT2C,AVISITC,1003,1003,1003,BASECAT1C,BASECAT2C,1003,1003,Low,Low,CHGCAT1C,1003,CHGCAT2C,1003,Low,Low,CRIT1C,Y,1,CRIT2C,Y,1,Y,1,MCRIT1C,MCRIT1MLC,1003,MCRIT2C,MCRIT2MLC,1003,1,Y,Y,Y,Y,Y,PARCAT1C,1003,PARCAT2C,1003,1003,1003,1003,1003,PCHGCAT1C,PCHGCAT2C,1003,1003,SHIFT1C,1003,SHIFT2C,1003,TRTAC,TRTAC,TRTAC,TRTAG1C,1003,TRTAG2C,1003,1003,1003,1003,TRTPG1C,1003,TRTPG2C,1003,1003,1003,1003,P01S1_C,P02S1_C,01/03/2026,01/03/2026,NONE,NONE,NONE,NONE,Y,Y,Y,Y,01/03/2026,01/03/2026,NONE,NONE,NONE,NONE,Y,Y,Y,Y,100,mg,ng/mL
