STUDYID;USUBJID;AESEQ;AETERM;AEDECOD;AEBODSYS;AESER;AEBDSYCD;AELLT;AELLTCD;AEPTCD;AEHLT;AEHLTCD;AEHLGT;AEHLGTCD;AESOC;AESOCCD;AESTDTC;ASTDT;AEENDTC;AENDT;ASTDY;AENDY;TRTEMFL
Study Identifier;Unique Subject Identifier;Sequence Number;Reported Term for the Adverse Event;Dictionary-Derived Term;Body System or Organ Class;Serious Event;Body System or Organ Class Code;Lowest Level Term;Lowest Level Term Code;Preferred Term Code;High Level Term;High Level Term Code;High Level Group Term;High Level Group Term Code;Primary System Organ Class;Primary System Organ Class Code;Start Date/Time of Adverse Event;Analysis Start Date;End Date/Time of Adverse Event;Analysis End Date;Analysis Start Relative Day;Analysis End Relative Day;Treatment Emergent Analysis Flag
Char;Char;Num;Char;Char;Char;Char;Num;Char;Num;Num;Char;Num;Char;Char;Char;Num;Char;Num;Char;Num;Num;Num;Char
8;17;8;32;32;64;1;16;32;16;16;32;16;16;16;24;16;12;32;12;32;8;8;1
STUDY001;STUDY001-SUBJ0001;1;PAIN;PAIN;CARDIAC DISORDERS;Y;105502;GOOD;10542;210542;FANTASTIC;10542;BIG GROUP;GR0023211;BIG ORGAN;10221;26/01/2026;100202420434;26/02/2026;100302420434;49;60;Y
STUDY001;STUDY001-SUBJ0002;2;DIZZINESS;DIZZINESS;NERVOUS SYSTEM DISORDERS;Y;103322;MEDIUM;10211;210211;NORMAL;10211;MEDIUM GROUP;GT0343424;MEDIUM ORGAN;9678;26/03/2026;100206044322;26/04/2026;100306044322;140;170;N
STUDY001;STUDY001-SUBJ0003;3;RASH;RASH;NERVOUS SYSTEM DISORDERS;N;102211;BAD;10022;210022;POOR;10022;SMALL GROUP;GY5232032;SMALL ORGAN;7605;26/04/2026;100200182742;26/05/2026;100300182742;69;180;Y