STUDYID,USUBJID,AESEQ,AETERM,AESEV,AESEVN,ASEV,ASEVN,SEVGR1,SEVGR1N,AEREL,AERELN,AREL,ARELN,RELGR1,RELGR1N,AETOXGR,AETOXGRN,ATOXGR,ATOXGRN,TOXGGR1,TOXGGR1N,SMQ01SC,SMQ01SCN
Study Identifier,Unique Subject Identifier,Sequence Number,Reported Term for the Adverse Event,Severity/Intensity,Severity/Intensity (N),Analysis Severity/Intensity,Analysis Severity/Intensity (N),Pooled Severity Group 1,Pooled Severity Group 1 (N),Causality,Causality (N),Analysis Causality,Analysis Causality (N),Pooled Causality Group 1,Pooled Causality Group 1 (N),Standard Toxicity Grade,Standard Toxicity Grade (N),Analysis Toxicity Grade,Analysis Toxicity Grade (N),Pooled Toxicity Grade Group 1,Pooled Toxicity Grade 1 (N),SMQ 01 Scope,SMQ 01 Scope (N)
Char,Char,Num,Char,Char,Num,Char,Num,Char,Num,Char,Num,Char,Num,Char,Num,Char,Num,Char,Num,Char,Num,Char,Num
40,40,8,40,40,8,40,8,40,8,40,8,40,8,40,8,40,8,40,8,40,8,40,8
STUDY001,STUDY001-001,1,A,A,1,A,1,A,1,A,1,A,1,A,1,A,1,A,1,A,1,A,1
STUDY001,STUDY001-002,2,B,B,2,B,2,B,2,B,2,B,2,B,2,B,2,B,2,B,2,B,2
STUDY001,STUDY001-003,3,C,C,3,C,3,C,3,C,3,C,3,C,3,C,3,C,3,C,3,C,3
