STUDYID,USUBJID,TRT01P,TRT01PN,TRTSEQP,TRTSEQPN,TRTSEQA,TRTSEQAN,TR01PG1,TR01PG1N,TR01AG1,TR01AG1N,TRT01A,TRT01AN
Study Identifier,Unique Subject Identifier,Planned Treatment for Period 01,Planned Treatment for Period 01 (N),Planned Sequence of Treatments,Planned Sequence of Treatments (N),Actual Sequence of Treatments,Actual Sequence of Treatments (N),Planned Pooled Treatment 1 for Period 01,Planned Pooled Trt 1 for Period 01 (N),Actual Pooled Treatment 1 for Period 01,Actual Pooled Trt 1 for Period 01 (N),Actual Treatment for Period 01,Actual Treatment for Period 01 (N)
Char,Char,Char,Num,Char,Num,Char,Num,Char,Num,Char,Num,Char,Num
40,40,40,8,40,8,40,8,40,8,40,8,40,8
STUDY001,STUDY001-001,A,1,A,1,A,1,A,1,A,1,A,1
STUDY001,STUDY001-002,B,2,B,2,B,2,B,2,B,2,B,2
STUDY001,STUDY001-003,C,3,C,3,C,3,C,3,C,3,C,3
