STUDYID,USUBJID,PARAMCD,PARAM,PARAMTYP,PARCAT1,PARCAT1N,TRTP,TRTPN,TRTA,TRTAN,APERIODC,APERIOD,TRTPG1,TRTPG1N,TRTAG1,TRTAG1N,AVAL
Study Identifier,Unique Subject Identifier,Parameter Code,Parameter,Parameter Type,Parameter Category 1,Parameter Category 1 (N),Planned Treatment,Planned Treatment (N),Actual Treatment,Actual Treatment (N),Period (C),Period,Planned Pooled Treatment 1,Planned Pooled Treatment 1 (N),Actual Pooled Treatment 1,Actual Pooled Treatment 1 (N),Analysis Value
Char,Char,Char,Char,Char,Char,Num,Char,Num,Char,Num,Char,Num,Char,Num,Char,Num,Num
40,40,40,40,40,40,8,40,8,40,8,40,8,40,8,40,8,8
STUDY001,STUDY001-001,A,P,DERIVED,C1,1,A,1,A,1,A,1,A,1,A,1,1
STUDY001,STUDY001-002,B,Q,LOG,C2,2,B,2,B,2,B,2,B,2,B,2,2
STUDY001,STUDY001-003,C,R,SUMMARY,C3,3,C,3,C,3,C,3,C,3,C,3,3
