STUDYID,USUBJID,AESEQ,AETERM,AEACN
Study Identifier,Unique Subject Identifier,Sequence Number,Reported Term for the Adverse Event,Action Taken with Study Treatment
Char,Char,Num,Char,Char
20,40,8,40,40
STUDY001,STUDY001-001,1,HEADACHE,DOSE NOT CHANGED